"success","task","trial_type","trial_index","time_elapsed","internal_node_id","timeout","failed_images","failed_audio","failed_video","rt","stimulus","response","pixels_per_unit","is_correct","search_difficulty","enhanced","originalDigits","currentSpanLength","reversedDigits","span_length","correct_digits","digit_accuracy","trial_Type","VISsearch_propcorrect","VISsearch_meanRT","DSBpre_propcorrect","DSBpre_maxspan","DSBpre_digitaccuracy","DSBpre_rt","vegetationLevel","imageType","DSBpost_propcorrect","DSBpost_maxspan","DSBpost_digitaccuracy","DSBpost_rt","block","trial","trialid","VisDifficulty","Vis_meanRT","Vis_propCorr","imageIDX","attention_check_correct","target_button","question_order","image_id","iamge_set"
"true","fullscreen_enter","fullscreen","0","3441","0.0-0.0","","","","","","","","","","","","","","","","","","","","","","","","","","","","","","","","","","","","","","","","","",""
"true","","preload","1","8378","0.0-1.0","false","[]","[]","[]","","","","","","","","","","","","","","","","","","","","","","","","","","","","","","","","","","","","","",""
"","wecome","html-button-response","2","11087","0.0-2.0","","","","","2707","welcome_msg","0","","","","","","","","","","","","","","","","","","","","","","","","","","","","","","","","","","",""
"","PIS","html-button-response","3","14422","0.0-3.0","","","","","3329","PISdoc","0","","","","","","","","","","","","","","","","","","","","","","","","","","","","","","","","","","",""
"","demographics","survey-html-form","4","18072","0.0-4.0","","","","","3646","","{""age"":""18"",""gender"":""male"",""id"":""7342""}","","","","","","","","","","","","","","","","","","","","","","","","","","","","","","","","","","",""
"","","html-button-response","5","23637","0.0-5.0","","","","","5564","<div style= ""font-size: 24px; color: white; 
        position: absolute;
         top: 50%;left: 50%; transform: translate(-50%, -50%)"">        

            <br>Welcome to the experiment.<br> 
            Please read the instructions carefully.<br>
            There are two task types.<br><br>
            In the visual search task:<br>
            You must search the screen for either a red <font color = ""red"">""T"" </font>
            or blue <font color = ""blue""> ""O"" </font> hidden among red <font color = ""red""> ""X""s </font>.
            <br><br> In the digit task:<br> You must recall a list of numbers in reverse order. </div>
        ","0","","","","","","","","","","","","","","","","","","","","","","","","","","","","","","","","","","",""
"","calibration","html-button-response","6","24837","0.0-6.0","","","","","1198","calibration","0","151","","","","","","","","","","","","","","","","","","","","","","","","","","","","","","","","","",""
"","VS_instruct","html-button-response","7","26004","0.0-7.0","","","","","1165","VS_instruct","0","","","","","","","","","","","","","","","","","","","","","","","","","","","","","","","","","","",""
"","VisSearch","html-button-response","8","27185","0.0-8.0","","","","","1178.9000000059605","VisSearch","","","true","1","true","","","","","","","","","","","","","","","","","","","","","","","","","","","","","","",""
"","VisSearch","html-button-response","9","28469","0.0-9.0","","","","","1283.2000000178814","VisSearch","","","true","1","true","","","","","","","","","","","","","","","","","","","","","","","","","","","","","","",""
"","VisSearch","html-button-response","10","29402","0.0-10.0","","","","","931.0999999940395","VisSearch","","","true","1","true","","","","","","","","","","","","","","","","","","","","","","","","","","","","","","",""
"","VisSearch","html-button-response","11","30169","0.0-11.0","","","","","766.0999999940395","VisSearch","","","true","1","true","","","","","","","","","","","","","","","","","","","","","","","","","","","","","","",""
"","VisSearch","html-button-response","12","31036","0.0-12.0","","","","","865.4000000059605","VisSearch","","","true","1","true","","","","","","","","","","","","","","","","","","","","","","","","","","","","","","",""
"","VisSearch","html-button-response","13","32252","0.0-13.0","","","","","1215.5","VisSearch","","","true","1","true","","","","","","","","","","","","","","","","","","","","","","","","","","","","","","",""
"","VisSearch","html-button-response","14","33187","0.0-14.0","","","","","934.1000000238419","VisSearch","","","true","1","true","","","","","","","","","","","","","","","","","","","","","","","","","","","","","","",""
"","VisSearch","html-button-response","15","34353","0.0-15.0","","","","","1164.300000011921","VisSearch","","","true","1","true","","","","","","","","","","","","","","","","","","","","","","","","","","","","","","",""
"","VisSearch","html-button-response","16","35386","0.0-16.0","","","","","1032.0999999940395","VisSearch","","","true","1","true","","","","","","","","","","","","","","","","","","","","","","","","","","","","","","",""
"","VisSearch","html-button-response","17","36253","0.0-17.0","","","","","866.5","VisSearch","","","true","1","true","","","","","","","","","","","","","","","","","","","","","","","","","","","","","","",""
"","DSB_instruct","html-button-response","18","42353","0.0-18.0","","","","","6098","DSB_instruct","0","","","","","","","","","","","","","","","","","","","","","","","","","","","","","","","","","","",""
"","DSB 2964","html-keyboard-response","19","46067","0.0-19.0","","","","","","DSB","","","","","","[2,9,6,4]","4","4692","","","","","","","","","","","","","","","","","","","","","","","","","","","",""
"","DSBrecall","html-button-response","20","54304","0.0-20.0","","","","","55793.30000001192","DSBrecall","4692","","true","","","","","","4","4","1","","","","","","","","","","","","","","","","","","","","","","","","",""
"","feedback","html-button-response","21","55270","0.0-21.0","","","","","964","<div class =""experiment-text""; style=""font-size: 24.16px;"">
            Correct!<br><br>
            Good job!
            </div>","0","","","","","","","","","","","","","","","","","","","","","","","","","","","","","","","","","","",""
"","DSB_instruct","html-button-response","22","58253","0.0-22.0","","","","","2982","DSB_instruct","0","","","","","","","","","","","","","","","","","","","","","","","","","","","","","","","","","","",""
"","DSB 97332533","html-keyboard-response","23","65581","0.0-23.0","","","","","","DSB","","","","","","[9,7,3,3,2,5,3,3]","8","33523379","","","","","","","","","","","","","","","","","","","","","","","","","","","",""
"","DSBrecall","html-button-response","24","79553","0.0-24.0","","","","","81043.59999999404","DSBrecall","33975333","","false","","","","","","8","3","0.375","","","","","","","","","","","","","","","","","","","","","","","","",""
"","feedback","html-button-response","25","82421","0.0-25.0","","","","","2866","<div class =""experiment-text""; style=""font-size: 24.16px;"">
            Incorrect.<br><br>
            Try to recall in the reversed order.
            </div>","0","","","","","","","","","","","","","","","","","","","","","","","","","","","","","","","","","","",""
"","VS_instruct","html-button-response","26","84121","0.0-26.0","","","","","1698","VS_instruct","0","","","","","","","","","","","","","","","","","","","","","","","","","","","","","","","","","","",""
"","VisSearch","html-button-response","27","86623","0.0-27.0","","","","","null","VisSearch","","","false","2","true","","","","","","","","","","","","","","","","","","","","","","","","","","","","","","",""
"","VisSearch","html-button-response","28","88554","0.0-28.0","","","","","1928.8999999761581","VisSearch","","","true","2","true","","","","","","","","","","","","","","","","","","","","","","","","","","","","","","",""
"","VisSearch","html-button-response","29","90420","0.0-29.0","","","","","1865","VisSearch","","","true","2","true","","","","","","","","","","","","","","","","","","","","","","","","","","","","","","",""
"","VisSearch","html-button-response","30","91486","0.0-30.0","","","","","1065.1000000238419","VisSearch","","","true","2","true","","","","","","","","","","","","","","","","","","","","","","","","","","","","","","",""
"","VisSearch","html-button-response","31","93086","0.0-31.0","","","","","1599.199999988079","VisSearch","","","true","2","true","","","","","","","","","","","","","","","","","","","","","","","","","","","","","","",""
"","VisSearch","html-button-response","32","95589","0.0-32.0","","","","","null","VisSearch","","","false","2","true","","","","","","","","","","","","","","","","","","","","","","","","","","","","","","",""
"","VisSearch","html-button-response","33","96752","0.0-33.0","","","","","1162.800000011921","VisSearch","","","true","2","true","","","","","","","","","","","","","","","","","","","","","","","","","","","","","","",""
"","VisSearch","html-button-response","34","97970","0.0-34.0","","","","","1216.5","VisSearch","","","true","2","true","","","","","","","","","","","","","","","","","","","","","","","","","","","","","","",""
"","VisSearch","html-button-response","35","98936","0.0-35.0","","","","","965.5999999940395","VisSearch","","","true","2","true","","","","","","","","","","","","","","","","","","","","","","","","","","","","","","",""
"","VisSearch","html-button-response","36","101438","0.0-36.0","","","","","null","VisSearch","","","false","2","true","","","","","","","","","","","","","","","","","","","","","","","","","","","","","","",""
"","DSB_instruct","html-button-response","37","102854","0.0-37.0","","","","","1415","DSB_instruct","0","","","","","","","","","","","","","","","","","","","","","","","","","","","","","","","","","","",""
"","DSB 1503","html-keyboard-response","38","106569","0.0-38.0","","","","","","DSB","","","","","","[1,5,0,3]","4","3051","","","","","","","","","","","","","","","","","","","","","","","","","","","",""
"","DSBrecall","html-button-response","39","114037","0.0-39.0","","","","","115529.40000000596","DSBrecall","3051","","true","","","","","","4","4","1","","","","","","","","","","","","","","","","","","","","","","","","",""
"","feedback","html-button-response","40","123771","0.0-40.0","","","","","9732","<div class =""experiment-text""; style=""font-size: 24.16px;"">
            Correct!<br><br>
            Good job!
            </div>","0","","","","","","","","","","","","","","","","","","","","","","","","","","","","","","","","","","",""
"","DSB_instruct","html-button-response","41","124687","0.0-41.0","","","","","915","DSB_instruct","0","","","","","","","","","","","","","","","","","","","","","","","","","","","","","","","","","","",""
"","DSB 58096105","html-keyboard-response","42","132016","0.0-42.0","","","","","","DSB","","","","","","[5,8,0,9,6,1,0,5]","8","50169085","","","","","","","","","","","","","","","","","","","","","","","","","","","",""
"","DSBrecall","html-button-response","43","147309","0.0-43.0","","","","","148798.30000001192","DSBrecall","50169085","","true","","","","","","8","8","1","","","","","","","","","","","","","","","","","","","","","","","","",""
"","feedback","html-button-response","44","217009","0.0-44.0","","","","","69683","<div class =""experiment-text""; style=""font-size: 24.16px;"">
            Correct!<br><br>
            Good job!
            </div>","0","","","","","","","","","","","","","","","","","","","","","","","","","","","","","","","","","","",""
"","expIntructions","html-button-response","45","220888","0.0-45.0-0.0","","","","","3868","expInstruc","0","","","","","","","","","","","","","","","","","","","","","","","","","","","","","","","","","","",""
"","expIntructions","html-button-response","46","228122","0.0-45.0-0.1","","","","","7232","expInstruc","0","","","","","","","","","","","","","","","","","","","","","","","","","","","","","","","","","","",""
"","expIntructions","html-button-response","47","230272","0.0-45.0-0.2","","","","","2148","expInstruc","0","","","","","","","","","","","","","","","","","","","","","","","","","","","","","","","","","","",""
"","expIntructions","html-button-response","48","233656","0.0-45.0-0.3","","","","","3383","expInstruc","0","","","","","","","","","","","","","","","","","","","","","","","","","","","","","","","","","","",""
"","expIntructions","html-button-response","49","243658","0.0-45.0-0.4","","","","","10001","expInstruc","0","","","","","","","","","","","","","","","","","","","","","","","","","","","","","","","","","","",""
"","expIntructions","html-button-response","50","250922","0.0-45.0-0.5","","","","","7264","expInstruc","0","","","","","","","","","","","","","","","","","","","","","","","","","","","","","","","","","","",""
"","expIntructions","html-button-response","51","251889","0.0-45.0-0.6","","","","","965","expInstruc","0","","","","","","","","","","","","","","","","","","","","","","","","","","","","","","","","","","",""
"","","html-button-response","52","255506","0.0-46.0","","","","","3614","block message","0","","","","","","","","","","","","","","","","","","","","","","","","","","","","","","","","","","",""
"","VS_instruct","html-button-response","53","256656","0.0-47.0","","","","","1148","VS_instruct","0","","","","","","","","","","","","","","","","","","","","","","","","","","","","","","","","","","",""
"","VisSearch","html-button-response","54","257722","0.0-48.0","","","","","1063.699999988079","VisSearch","","","true","1","true","","","","","","","","","","","","","","","","","","","","","","","","","","","","","","",""
"","VisSearch","html-button-response","55","258771","0.0-49.0","","","","","1048.5999999940395","VisSearch","","","true","1","true","","","","","","","","","","","","","","","","","","","","","","","","","","","","","","",""
"","VisSearch","html-button-response","56","259538","0.0-50.0","","","","","765.5999999940395","VisSearch","","","true","1","true","","","","","","","","","","","","","","","","","","","","","","","","","","","","","","",""
"","VisSearch","html-button-response","57","260422","0.0-51.0","","","","","882.3999999761581","VisSearch","","","true","1","true","","","","","","","","","","","","","","","","","","","","","","","","","","","","","","",""
"","VisSearch","html-button-response","58","261323","0.0-52.0","","","","","900.0999999940395","VisSearch","","","true","1","true","","","","","","","","","","","","","","","","","","","","","","","","","","","","","","",""
"","VisSearch","html-button-response","59","262405","0.0-53.0","","","","","1080.5","VisSearch","","","true","1","true","","","","","","","","","","","","","","","","","","","","","","","","","","","","","","",""
"","VisSearch","html-button-response","60","263455","0.0-54.0","","","","","1049.5999999940395","VisSearch","","","true","1","true","","","","","","","","","","","","","","","","","","","","","","","","","","","","","","",""
"","VisSearch","html-button-response","61","264472","0.0-55.0","","","","","1015.5999999940395","VisSearch","","","true","1","true","","","","","","","","","","","","","","","","","","","","","","","","","","","","","","",""
"","VisSearch","html-button-response","62","265255","0.0-56.0","","","","","781.8000000119209","VisSearch","","","true","1","true","","","","","","","","","","","","","","","","","","","","","","","","","","","","","","",""
"","VisSearch","html-button-response","63","266155","0.0-57.0","","","","","899.2000000178814","VisSearch","","","true","1","true","","","","","","","","","","","","","","","","","","","","","","","","","","","","","","",""
"","","html-keyboard-response","64","266158","0.0-58.0","","","","","null","","null","","","","","","","","","","","vissearch-summary-calculation","1","948.7099999964237","","","","","","","","","","","","","","","","","","","","","",""
"","DSB_instruct","html-button-response","65","267506","0.0-59.0","","","","","1346","DSB_instruct","0","","","","","","","","","","","","","","","","","","","","","","","","","","","","","","","","","","",""
"","DSB 46762125","html-keyboard-response","66","274833","0.0-60.0","","","","","","DSB","","","","","","[4,6,7,6,2,1,2,5]","8","52126764","","","","","","","","","","","","","","","","","","","","","","","","","","","",""
"","DSBrecall","html-button-response","67","281873","0.0-61.0","","","","","283371","DSBrecall","57544444","","false","","","","","","8","2","0.25","","","","","","","","","","","","","","","","","","","","","","","","",""
"","","dsb-summary-calculation","68","281877","0.0-62.0","","","","","null","","null","","","","","","","","","","","","","","0","0","0.25","283371","","","","","","","","","","","","","","","","","",""
"","image_instruct","html-button-response","69","297224","0.0-63.0","","","","","15345","image_instruct","0","","","","","","","","","","","","","","","","","","","","","","","","","","","","","","","","","","",""
"","img7","html-keyboard-response","70","307227","0.0-64.0","","","","","null","img7","null","","","","","","","","","","","","","","","","","","1","2","","","","","","","","","","","","","","","",""
"","DSB_instruct","html-button-response","71","314990","0.0-65.0","","","","","7761","DSB_instruct","0","","","","","","","","","","","","","","","","","","","","","","","","","","","","","","","","","","",""
"","DSB 94530478","html-keyboard-response","72","322315","0.0-66.0","","","","","","DSB","","","","","","[9,4,5,3,0,4,7,8]","8","87403549","","","","","","","","","","","","","","","","","","","","","","","","","","","",""
"","DSBrecall","html-button-response","73","338256","0.0-67.0","","","","","339756.2000000179","DSBrecall","87403549","","true","","","","","","8","8","1","","","","","","","","","","","","","","","","","","","","","","","","",""
"","","dsb-summary-calculation","74","338260","0.0-68.0","","","","","null","","null","","","","","","","","","","","","","","","","","","","","1","8","1","339756.2000000179","","","","","","","","","","","",""
"","consolidated-trial-data","consolidated-trial-data","75","338261","0.0-69.0","","","","","null","consolidated-trial-data","null","","","","","","","","","","","","","","0","0","0.25","","1","2","1","8","1","","0","0","39","1","948.7099999964237","1","7","","","","",""
"","attncheck","html-button-response","76","345341","0.0-70.0","","","","","7079","attncheck","1","","","","","","","","","","","","","","","","","","","","","","","","","","","","","","","true","Continue","","",""
"","","html-button-response","77","347491","0.0-71.0","","","","","2148","block message","0","","","","","","","","","","","","","","","","","","","","","","","","","","","","","","","","","","",""
"","VS_instruct","html-button-response","78","348407","0.0-72.0","","","","","915","VS_instruct","0","","","","","","","","","","","","","","","","","","","","","","","","","","","","","","","","","","",""
"","VisSearch","html-button-response","79","349423","0.0-73.0","","","","","1014.2000000178814","VisSearch","","","true","1","true","","","","","","","","","","","","","","","","","","","","","","","","","","","","","","",""
"","VisSearch","html-button-response","80","350157","0.0-74.0","","","","","732.5999999940395","VisSearch","","","true","1","true","","","","","","","","","","","","","","","","","","","","","","","","","","","","","","",""
"","VisSearch","html-button-response","81","350939","0.0-75.0","","","","","781.2999999821186","VisSearch","","","true","1","true","","","","","","","","","","","","","","","","","","","","","","","","","","","","","","",""
"","VisSearch","html-button-response","82","351922","0.0-76.0","","","","","981.9000000059605","VisSearch","","","true","1","true","","","","","","","","","","","","","","","","","","","","","","","","","","","","","","",""
"","VisSearch","html-button-response","83","353140","0.0-77.0","","","","","1217","VisSearch","","","true","1","true","","","","","","","","","","","","","","","","","","","","","","","","","","","","","","",""
"","VisSearch","html-button-response","84","354140","0.0-78.0","","","","","998.8000000119209","VisSearch","","","true","1","true","","","","","","","","","","","","","","","","","","","","","","","","","","","","","","",""
"","VisSearch","html-button-response","85","355240","0.0-79.0","","","","","1098.4000000059605","VisSearch","","","true","1","true","","","","","","","","","","","","","","","","","","","","","","","","","","","","","","",""
"","VisSearch","html-button-response","86","356173","0.0-80.0","","","","","932.5999999940395","VisSearch","","","true","1","true","","","","","","","","","","","","","","","","","","","","","","","","","","","","","","",""
"","VisSearch","html-button-response","87","357039","0.0-81.0","","","","","864.7999999821186","VisSearch","","","true","1","true","","","","","","","","","","","","","","","","","","","","","","","","","","","","","","",""
"","VisSearch","html-button-response","88","357940","0.0-82.0","","","","","899.8000000119209","VisSearch","","","true","1","true","","","","","","","","","","","","","","","","","","","","","","","","","","","","","","",""
"","","html-keyboard-response","89","357943","0.0-83.0","","","","","null","","null","","","","","","","","","","","vissearch-summary-calculation","1","952.140000000596","","","","","","","","","","","","","","","","","","","","","",""
"","DSB_instruct","html-button-response","90","362273","0.0-84.0","","","","","4329","DSB_instruct","0","","","","","","","","","","","","","","","","","","","","","","","","","","","","","","","","","","",""
"","DSB 69198032","html-keyboard-response","91","369602","0.0-85.0","","","","","","DSB","","","","","","[6,9,1,9,8,0,3,2]","8","23089196","","","","","","","","","","","","","","","","","","","","","","","","","","","",""
"","DSBrecall","html-button-response","92","399241","0.0-86.0","","","","","400743.59999999404","DSBrecall","23089196","","true","","","","","","8","8","1","","","","","","","","","","","","","","","","","","","","","","","","",""
"","","dsb-summary-calculation","93","399244","0.0-87.0","","","","","null","","null","","","","","","","","","","","","","","1","8","1","400743.59999999404","","","","","","","","","","","","","","","","","",""
"","image_instruct","html-button-response","94","400908","0.0-88.0","","","","","1663","image_instruct","0","","","","","","","","","","","","","","","","","","","","","","","","","","","","","","","","","","",""
"","img3","html-keyboard-response","95","410911","0.0-89.0","","","","","null","img3","null","","","","","","","","","","","","","","","","","","3","2","","","","","","","","","","","","","","","",""
"","DSB_instruct","html-button-response","96","414208","0.0-90.0","","","","","3296","DSB_instruct","0","","","","","","","","","","","","","","","","","","","","","","","","","","","","","","","","","","",""
"","DSB 12687619","html-keyboard-response","97","421537","0.0-91.0","","","","","","DSB","","","","","","[1,2,6,8,7,6,1,9]","8","91678621","","","","","","","","","","","","","","","","","","","","","","","","","","","",""
"","DSBrecall","html-button-response","98","433408","0.0-92.0","","","","","434911.40000000596","DSBrecall","91678621","","true","","","","","","8","8","1","","","","","","","","","","","","","","","","","","","","","","","","",""
"","","dsb-summary-calculation","99","433410","0.0-93.0","","","","","null","","null","","","","","","","","","","","","","","","","","","","","1","8","1","434911.40000000596","","","","","","","","","","","",""
"","consolidated-trial-data","consolidated-trial-data","100","433411","0.0-94.0","","","","","null","consolidated-trial-data","null","","","","","","","","","","","","","","1","8","1","","3","2","1","8","1","","0","1","39","1","952.140000000596","1","3","","","","",""
"","attncheck","html-button-response","101","435075","0.0-95.0","","","","","1664","attncheck","2","","","","","","","","","","","","","","","","","","","","","","","","","","","","","","","true","Next","","",""
"","","html-button-response","102","436725","0.0-96.0","","","","","1648","block message","0","","","","","","","","","","","","","","","","","","","","","","","","","","","","","","","","","","",""
"","VS_instruct","html-button-response","103","437891","0.0-97.0","","","","","1165","VS_instruct","0","","","","","","","","","","","","","","","","","","","","","","","","","","","","","","","","","","",""
"","VisSearch","html-button-response","104","438874","0.0-98.0","","","","","981.4000000059605","VisSearch","","","true","1","true","","","","","","","","","","","","","","","","","","","","","","","","","","","","","","",""
"","VisSearch","html-button-response","105","440041","0.0-99.0","","","","","1165.4000000059605","VisSearch","","","true","1","true","","","","","","","","","","","","","","","","","","","","","","","","","","","","","","",""
"","VisSearch","html-button-response","106","440974","0.0-100.0","","","","","932.3000000119209","VisSearch","","","true","1","true","","","","","","","","","","","","","","","","","","","","","","","","","","","","","","",""
"","VisSearch","html-button-response","107","441891","0.0-101.0","","","","","915.7000000178814","VisSearch","","","true","1","true","","","","","","","","","","","","","","","","","","","","","","","","","","","","","","",""
"","VisSearch","html-button-response","108","442574","0.0-102.0","","","","","682.3000000119209","VisSearch","","","true","1","true","","","","","","","","","","","","","","","","","","","","","","","","","","","","","","",""
"","VisSearch","html-button-response","109","443342","0.0-103.0","","","","","766","VisSearch","","","true","1","true","","","","","","","","","","","","","","","","","","","","","","","","","","","","","","",""
"","VisSearch","html-button-response","110","444324","0.0-104.0","","","","","981.0999999940395","VisSearch","","","true","1","true","","","","","","","","","","","","","","","","","","","","","","","","","","","","","","",""
"","VisSearch","html-button-response","111","445091","0.0-105.0","","","","","765.9000000059605","VisSearch","","","true","1","true","","","","","","","","","","","","","","","","","","","","","","","","","","","","","","",""
"","VisSearch","html-button-response","112","446090","0.0-106.0","","","","","998.0999999940395","VisSearch","","","true","1","true","","","","","","","","","","","","","","","","","","","","","","","","","","","","","","",""
"","VisSearch","html-button-response","113","446774","0.0-107.0","","","","","682.5999999940395","VisSearch","","","true","1","true","","","","","","","","","","","","","","","","","","","","","","","","","","","","","","",""
"","","html-keyboard-response","114","446778","0.0-108.0","","","","","null","","null","","","","","","","","","","","vissearch-summary-calculation","1","887.0800000041723","","","","","","","","","","","","","","","","","","","","","",""
"","DSB_instruct","html-button-response","115","450258","0.0-109.0","","","","","3479","DSB_instruct","0","","","","","","","","","","","","","","","","","","","","","","","","","","","","","","","","","","",""
"","DSB 08242961","html-keyboard-response","116","457588","0.0-110.0","","","","","","DSB","","","","","","[0,8,2,4,2,9,6,1]","8","16924280","","","","","","","","","","","","","","","","","","","","","","","","","","","",""
"","DSBrecall","html-button-response","117","469674","0.0-111.0","","","","","471179.3000000119","DSBrecall","16924280","","true","","","","","","8","8","1","","","","","","","","","","","","","","","","","","","","","","","","",""
"","","dsb-summary-calculation","118","469677","0.0-112.0","","","","","null","","null","","","","","","","","","","","","","","1","8","1","471179.3000000119","","","","","","","","","","","","","","","","","",""
"","image_instruct","html-button-response","119","470709","0.0-113.0","","","","","1031","image_instruct","0","","","","","","","","","","","","","","","","","","","","","","","","","","","","","","","","","","",""
"","img5","html-keyboard-response","120","480711","0.0-114.0","","","","","null","img5","null","","","","","","","","","","","","","","","","","","2","1","","","","","","","","","","","","","","","",""
"","DSB_instruct","html-button-response","121","485192","0.0-115.0","","","","","4480","DSB_instruct","0","","","","","","","","","","","","","","","","","","","","","","","","","","","","","","","","","","",""
"","DSB 15427408","html-keyboard-response","122","492522","0.0-116.0","","","","","","DSB","","","","","","[1,5,4,2,7,4,0,8]","8","80472451","","","","","","","","","","","","","","","","","","","","","","","","","","","",""
"","DSBrecall","html-button-response","123","504075","0.0-117.0","","","","","505581.3000000119","DSBrecall","80472451","","true","","","","","","8","8","1","","","","","","","","","","","","","","","","","","","","","","","","",""
"","","dsb-summary-calculation","124","504077","0.0-118.0","","","","","null","","null","","","","","","","","","","","","","","","","","","","","1","8","1","505581.3000000119","","","","","","","","","","","",""
"","consolidated-trial-data","consolidated-trial-data","125","504078","0.0-119.0","","","","","null","consolidated-trial-data","null","","","","","","","","","","","","","","1","8","1","","2","1","1","8","1","","0","2","39","1","887.0800000041723","1","5","","","","",""
"","","html-button-response","126","508327","0.0-120.0","","","","","4247","block message","0","","","","","","","","","","","","","","","","","","","","","","","","","","","","","","","","","","",""
"","VS_instruct","html-button-response","127","509275","0.0-121.0","","","","","947","VS_instruct","0","","","","","","","","","","","","","","","","","","","","","","","","","","","","","","","","","","",""
"","VisSearch","html-button-response","128","510209","0.0-122.0","","","","","932.0999999940395","VisSearch","","","true","1","true","","","","","","","","","","","","","","","","","","","","","","","","","","","","","","",""
"","VisSearch","html-button-response","129","511125","0.0-123.0","","","","","914.9000000059605","VisSearch","","","true","1","true","","","","","","","","","","","","","","","","","","","","","","","","","","","","","","",""
"","VisSearch","html-button-response","130","511841","0.0-124.0","","","","","715","VisSearch","","","true","1","true","","","","","","","","","","","","","","","","","","","","","","","","","","","","","","",""
"","VisSearch","html-button-response","131","512808","0.0-125.0","","","","","965.8000000119209","VisSearch","","","true","1","true","","","","","","","","","","","","","","","","","","","","","","","","","","","","","","",""
"","VisSearch","html-button-response","132","513775","0.0-126.0","","","","","965.5999999940395","VisSearch","","","true","1","true","","","","","","","","","","","","","","","","","","","","","","","","","","","","","","",""
"","VisSearch","html-button-response","133","514575","0.0-127.0","","","","","799","VisSearch","","","true","1","true","","","","","","","","","","","","","","","","","","","","","","","","","","","","","","",""
"","VisSearch","html-button-response","134","515475","0.0-128.0","","","","","899.1999999880791","VisSearch","","","true","1","true","","","","","","","","","","","","","","","","","","","","","","","","","","","","","","",""
"","VisSearch","html-button-response","135","516341","0.0-129.0","","","","","865.4000000059605","VisSearch","","","true","1","true","","","","","","","","","","","","","","","","","","","","","","","","","","","","","","",""
"","VisSearch","html-button-response","136","517175","0.0-130.0","","","","","832.2000000178814","VisSearch","","","true","1","true","","","","","","","","","","","","","","","","","","","","","","","","","","","","","","",""
"","VisSearch","html-button-response","137","518009","0.0-131.0","","","","","833.6999999880791","VisSearch","","","true","1","true","","","","","","","","","","","","","","","","","","","","","","","","","","","","","","",""
"","","html-keyboard-response","138","518012","0.0-132.0","","","","","null","","null","","","","","","","","","","","vissearch-summary-calculation","1","872.290000000596","","","","","","","","","","","","","","","","","","","","","",""
"","DSB_instruct","html-button-response","139","520726","0.0-133.0","","","","","2713","DSB_instruct","0","","","","","","","","","","","","","","","","","","","","","","","","","","","","","","","","","","",""
"","DSB 47841120","html-keyboard-response","140","528056","0.0-134.0","","","","","","DSB","","","","","","[4,7,8,4,1,1,2,0]","8","02114874","","","","","","","","","","","","","","","","","","","","","","","","","","","",""
"","DSBrecall","html-button-response","141","540942","0.0-135.0","","","","","542449.7000000179","DSBrecall","02114874","","true","","","","","","8","8","1","","","","","","","","","","","","","","","","","","","","","","","","",""
"","","dsb-summary-calculation","142","540944","0.0-136.0","","","","","null","","null","","","","","","","","","","","","","","1","8","1","542449.7000000179","","","","","","","","","","","","","","","","","",""
"","image_instruct","html-button-response","143","541793","0.0-137.0","","","","","847","image_instruct","0","","","","","","","","","","","","","","","","","","","","","","","","","","","","","","","","","","",""
"","img10","html-keyboard-response","144","551795","0.0-138.0","","","","","null","img10","null","","","","","","","","","","","","","","","","","","null","null","","","","","","","","","","","","","","","",""
"","DSB_instruct","html-button-response","145","556360","0.0-139.0","","","","","4563","DSB_instruct","0","","","","","","","","","","","","","","","","","","","","","","","","","","","","","","","","","","",""
"","DSB 09516474","html-keyboard-response","146","563689","0.0-140.0","","","","","","DSB","","","","","","[0,9,5,1,6,4,7,4]","8","47461590","","","","","","","","","","","","","","","","","","","","","","","","","","","",""
"","DSBrecall","html-button-response","147","574727","0.0-141.0","","","","","576235.400000006","DSBrecall","47461590","","true","","","","","","8","8","1","","","","","","","","","","","","","","","","","","","","","","","","",""
"","","dsb-summary-calculation","148","574729","0.0-142.0","","","","","null","","null","","","","","","","","","","","","","","","","","","","","1","8","1","576235.400000006","","","","","","","","","","","",""
"","consolidated-trial-data","consolidated-trial-data","149","574730","0.0-143.0","","","","","null","consolidated-trial-data","null","","","","","","","","","","","","","","1","8","1","","null","null","1","8","1","","0","3","39","1","872.290000000596","1","10","","","","",""
"","","html-button-response","150","575826","0.0-144.0","","","","","1095","block message","0","","","","","","","","","","","","","","","","","","","","","","","","","","","","","","","","","","",""
"","VS_instruct","html-button-response","151","576494","0.0-145.0","","","","","666","VS_instruct","0","","","","","","","","","","","","","","","","","","","","","","","","","","","","","","","","","","",""
"","VisSearch","html-button-response","152","577526","0.0-146.0","","","","","1030.7000000178814","VisSearch","","","true","1","true","","","","","","","","","","","","","","","","","","","","","","","","","","","","","","",""
"","VisSearch","html-button-response","153","578243","0.0-147.0","","","","","716.8000000119209","VisSearch","","","true","1","true","","","","","","","","","","","","","","","","","","","","","","","","","","","","","","",""
"","VisSearch","html-button-response","154","579126","0.0-148.0","","","","","881.7000000178814","VisSearch","","","true","1","true","","","","","","","","","","","","","","","","","","","","","","","","","","","","","","",""
"","VisSearch","html-button-response","155","579809","0.0-149.0","","","","","682.1999999880791","VisSearch","","","true","1","true","","","","","","","","","","","","","","","","","","","","","","","","","","","","","","",""
"","VisSearch","html-button-response","156","580626","0.0-150.0","","","","","814.7999999821186","VisSearch","","","true","1","true","","","","","","","","","","","","","","","","","","","","","","","","","","","","","","",""
"","VisSearch","html-button-response","157","581510","0.0-151.0","","","","","883.4000000059605","VisSearch","","","true","1","true","","","","","","","","","","","","","","","","","","","","","","","","","","","","","","",""
"","VisSearch","html-button-response","158","582276","0.0-152.0","","","","","765.2000000178814","VisSearch","","","true","1","true","","","","","","","","","","","","","","","","","","","","","","","","","","","","","","",""
"","VisSearch","html-button-response","159","583026","0.0-153.0","","","","","748.8000000119209","VisSearch","","","true","1","true","","","","","","","","","","","","","","","","","","","","","","","","","","","","","","",""
"","VisSearch","html-button-response","160","583861","0.0-154.0","","","","","833.6999999880791","VisSearch","","","true","1","true","","","","","","","","","","","","","","","","","","","","","","","","","","","","","","",""
"","VisSearch","html-button-response","161","584661","0.0-155.0","","","","","798.5","VisSearch","","","true","1","true","","","","","","","","","","","","","","","","","","","","","","","","","","","","","","",""
"","","html-keyboard-response","162","584663","0.0-156.0","","","","","null","","null","","","","","","","","","","","vissearch-summary-calculation","1","815.5800000041723","","","","","","","","","","","","","","","","","","","","","",""
"","DSB_instruct","html-button-response","163","585676","0.0-157.0","","","","","1012","DSB_instruct","0","","","","","","","","","","","","","","","","","","","","","","","","","","","","","","","","","","",""
"","DSB 92810928","html-keyboard-response","164","593007","0.0-158.0","","","","","","DSB","","","","","","[9,2,8,1,0,9,2,8]","8","82901829","","","","","","","","","","","","","","","","","","","","","","","","","","","",""
"","DSBrecall","html-button-response","165","629844","0.0-159.0","","","","","631355","DSBrecall","67868219","","false","","","","","","8","1","0.125","","","","","","","","","","","","","","","","","","","","","","","","",""
"","","dsb-summary-calculation","166","629847","0.0-160.0","","","","","null","","null","","","","","","","","","","","","","","0","0","0.125","631355","","","","","","","","","","","","","","","","","",""
"","image_instruct","html-button-response","167","630910","0.0-161.0","","","","","1063","image_instruct","0","","","","","","","","","","","","","","","","","","","","","","","","","","","","","","","","","","",""
"","img6","html-keyboard-response","168","640996","0.0-162.0","","","","","null","img6","null","","","","","","","","","","","","","","","","","","3","2","","","","","","","","","","","","","","","",""
"","DSB_instruct","html-button-response","169","656145","0.0-163.0","","","","","15147","DSB_instruct","0","","","","","","","","","","","","","","","","","","","","","","","","","","","","","","","","","","",""
"","DSB 34409625","html-keyboard-response","170","663473","0.0-164.0","","","","","","DSB","","","","","","[3,4,4,0,9,6,2,5]","8","52690443","","","","","","","","","","","","","","","","","","","","","","","","","","","",""
"","DSBrecall","html-button-response","171","674344","0.0-165.0","","","","","675856.099999994","DSBrecall","52690443","","true","","","","","","8","8","1","","","","","","","","","","","","","","","","","","","","","","","","",""
"","","dsb-summary-calculation","172","674346","0.0-166.0","","","","","null","","null","","","","","","","","","","","","","","","","","","","","1","8","1","675856.099999994","","","","","","","","","","","",""
"","consolidated-trial-data","consolidated-trial-data","173","674347","0.0-167.0","","","","","null","consolidated-trial-data","null","","","","","","","","","","","","","","0","0","0.125","","3","2","1","8","1","","0","4","39","1","815.5800000041723","1","6","","","","",""
"","","html-button-response","174","687611","0.0-168.0","","","","","13264","block message","0","","","","","","","","","","","","","","","","","","","","","","","","","","","","","","","","","","",""
"","VS_instruct","html-button-response","175","688562","0.0-169.0","","","","","949","VS_instruct","0","","","","","","","","","","","","","","","","","","","","","","","","","","","","","","","","","","",""
"","VisSearch","html-button-response","176","689727","0.0-170.0","","","","","1163.4000000059605","VisSearch","","","true","1","true","","","","","","","","","","","","","","","","","","","","","","","","","","","","","","",""
"","VisSearch","html-button-response","177","690744","0.0-171.0","","","","","1016.5","VisSearch","","","true","1","true","","","","","","","","","","","","","","","","","","","","","","","","","","","","","","",""
"","VisSearch","html-button-response","178","692544","0.0-172.0","","","","","1798.800000011921","VisSearch","","","true","1","true","","","","","","","","","","","","","","","","","","","","","","","","","","","","","","",""
"","VisSearch","html-button-response","179","693961","0.0-173.0","","","","","1415.5999999940395","VisSearch","","","true","1","true","","","","","","","","","","","","","","","","","","","","","","","","","","","","","","",""
"","VisSearch","html-button-response","180","694911","0.0-174.0","","","","","948.7999999821186","VisSearch","","","true","1","true","","","","","","","","","","","","","","","","","","","","","","","","","","","","","","",""
"","VisSearch","html-button-response","181","695944","0.0-175.0","","","","","1031.7000000178814","VisSearch","","","true","1","true","","","","","","","","","","","","","","","","","","","","","","","","","","","","","","",""
"","VisSearch","html-button-response","182","696928","0.0-176.0","","","","","982.7000000178814","VisSearch","","","true","1","true","","","","","","","","","","","","","","","","","","","","","","","","","","","","","","",""
"","VisSearch","html-button-response","183","697827","0.0-177.0","","","","","898.5","VisSearch","","","true","1","true","","","","","","","","","","","","","","","","","","","","","","","","","","","","","","",""
"","VisSearch","html-button-response","184","699111","0.0-178.0","","","","","1283.1000000238419","VisSearch","","","true","1","true","","","","","","","","","","","","","","","","","","","","","","","","","","","","","","",""
"","VisSearch","html-button-response","185","699844","0.0-179.0","","","","","731.7000000178814","VisSearch","","","true","1","true","","","","","","","","","","","","","","","","","","","","","","","","","","","","","","",""
"","","html-keyboard-response","186","699847","0.0-180.0","","","","","null","","null","","","","","","","","","","","vissearch-summary-calculation","1","1127.0800000071526","","","","","","","","","","","","","","","","","","","","","",""
"","DSB_instruct","html-button-response","187","702645","0.0-181.0","","","","","2796","DSB_instruct","0","","","","","","","","","","","","","","","","","","","","","","","","","","","","","","","","","","",""
"","DSB 03927038","html-keyboard-response","188","709974","0.0-182.0","","","","","","DSB","","","","","","[0,3,9,2,7,0,3,8]","8","83072930","","","","","","","","","","","","","","","","","","","","","","","","","","","",""
"","DSBrecall","html-button-response","189","722512","0.0-183.0","","","","","724025.7000000179","DSBrecall","83972930","","false","","","","","","8","7","0.875","","","","","","","","","","","","","","","","","","","","","","","","",""
"","","dsb-summary-calculation","190","722514","0.0-184.0","","","","","null","","null","","","","","","","","","","","","","","0","0","0.875","724025.7000000179","","","","","","","","","","","","","","","","","",""
"","image_instruct","html-button-response","191","723746","0.0-185.0","","","","","1230","image_instruct","0","","","","","","","","","","","","","","","","","","","","","","","","","","","","","","","","","","",""
"","img4","html-keyboard-response","192","733748","0.0-186.0","","","","","null","img4","null","","","","","","","","","","","","","","","","","","1","2","","","","","","","","","","","","","","","",""
"","DSB_instruct","html-button-response","193","739946","0.0-187.0","","","","","6196","DSB_instruct","0","","","","","","","","","","","","","","","","","","","","","","","","","","","","","","","","","","",""
"","DSB 07731405","html-keyboard-response","194","747275","0.0-188.0","","","","","","DSB","","","","","","[0,7,7,3,1,4,0,5]","8","50413770","","","","","","","","","","","","","","","","","","","","","","","","","","","",""
"","DSBrecall","html-button-response","195","762046","0.0-189.0","","","","","763561.2000000179","DSBrecall","50413077","","false","","","","","","8","6","0.75","","","","","","","","","","","","","","","","","","","","","","","","",""
"","","dsb-summary-calculation","196","762049","0.0-190.0","","","","","null","","null","","","","","","","","","","","","","","","","","","","","0","0","0.75","763561.2000000179","","","","","","","","","","","",""
"","consolidated-trial-data","consolidated-trial-data","197","762049","0.0-191.0","","","","","null","consolidated-trial-data","null","","","","","","","","","","","","","","0","0","0.875","","1","2","0","0","0.75","","0","5","39","1","1127.0800000071526","1","4","","","","",""
"","","html-button-response","198","763345","0.0-192.0","","","","","1295","block message","0","","","","","","","","","","","","","","","","","","","","","","","","","","","","","","","","","","",""
"","VS_instruct","html-button-response","199","764129","0.0-193.0","","","","","782","VS_instruct","0","","","","","","","","","","","","","","","","","","","","","","","","","","","","","","","","","","",""
"","VisSearch","html-button-response","200","765011","0.0-194.0","","","","","881","VisSearch","","","true","1","true","","","","","","","","","","","","","","","","","","","","","","","","","","","","","","",""
"","VisSearch","html-button-response","201","765862","0.0-195.0","","","","","849.5999999940395","VisSearch","","","true","1","true","","","","","","","","","","","","","","","","","","","","","","","","","","","","","","",""
"","VisSearch","html-button-response","202","766512","0.0-196.0","","","","","649","VisSearch","","","true","1","true","","","","","","","","","","","","","","","","","","","","","","","","","","","","","","",""
"","VisSearch","html-button-response","203","767179","0.0-197.0","","","","","666.3000000119209","VisSearch","","","true","1","true","","","","","","","","","","","","","","","","","","","","","","","","","","","","","","",""
"","VisSearch","html-button-response","204","768029","0.0-198.0","","","","","848.4000000059605","VisSearch","","","true","1","true","","","","","","","","","","","","","","","","","","","","","","","","","","","","","","",""
"","VisSearch","html-button-response","205","769379","0.0-199.0","","","","","1349.2000000178814","VisSearch","","","true","1","true","","","","","","","","","","","","","","","","","","","","","","","","","","","","","","",""
"","VisSearch","html-button-response","206","770179","0.0-200.0","","","","","799.1999999880791","VisSearch","","","true","1","true","","","","","","","","","","","","","","","","","","","","","","","","","","","","","","",""
"","VisSearch","html-button-response","207","770995","0.0-201.0","","","","","814.5","VisSearch","","","true","1","true","","","","","","","","","","","","","","","","","","","","","","","","","","","","","","",""
"","VisSearch","html-button-response","208","771695","0.0-202.0","","","","","699.5","VisSearch","","","true","1","true","","","","","","","","","","","","","","","","","","","","","","","","","","","","","","",""
"","VisSearch","html-button-response","209","772978","0.0-203.0","","","","","1282.2000000178814","VisSearch","","","true","1","true","","","","","","","","","","","","","","","","","","","","","","","","","","","","","","",""
"","","html-keyboard-response","210","772981","0.0-204.0","","","","","null","","null","","","","","","","","","","","vissearch-summary-calculation","1","883.8900000035762","","","","","","","","","","","","","","","","","","","","","",""
"","DSB_instruct","html-button-response","211","775545","0.0-205.0","","","","","2563","DSB_instruct","0","","","","","","","","","","","","","","","","","","","","","","","","","","","","","","","","","","",""
"","DSB 56916246","html-keyboard-response","212","782873","0.0-206.0","","","","","","DSB","","","","","","[5,6,9,1,6,2,4,6]","8","64261965","","","","","","","","","","","","","","","","","","","","","","","","","","","",""
"","DSBrecall","html-button-response","213","792929","0.0-207.0","","","","","794446","DSBrecall","64261965","","true","","","","","","8","8","1","","","","","","","","","","","","","","","","","","","","","","","","",""
"","","dsb-summary-calculation","214","792933","0.0-208.0","","","","","null","","null","","","","","","","","","","","","","","1","8","1","794446","","","","","","","","","","","","","","","","","",""
"","image_instruct","html-button-response","215","793996","0.0-209.0","","","","","1062","image_instruct","0","","","","","","","","","","","","","","","","","","","","","","","","","","","","","","","","","","",""
"","img8","html-keyboard-response","216","803999","0.0-210.0","","","","","null","img8","null","","","","","","","","","","","","","","","","","","2","2","","","","","","","","","","","","","","","",""
"","DSB_instruct","html-button-response","217","807263","0.0-211.0","","","","","3264","DSB_instruct","0","","","","","","","","","","","","","","","","","","","","","","","","","","","","","","","","","","",""
"","DSB 06436240","html-keyboard-response","218","814593","0.0-212.0","","","","","","DSB","","","","","","[0,6,4,3,6,2,4,0]","8","04263460","","","","","","","","","","","","","","","","","","","","","","","","","","","",""
"","DSBrecall","html-button-response","219","828746","0.0-213.0","","","","","830263.400000006","DSBrecall","04263460","","true","","","","","","8","8","1","","","","","","","","","","","","","","","","","","","","","","","","",""
"","","dsb-summary-calculation","220","828748","0.0-214.0","","","","","null","","null","","","","","","","","","","","","","","","","","","","","1","8","1","830263.400000006","","","","","","","","","","","",""
"","consolidated-trial-data","consolidated-trial-data","221","828748","0.0-215.0","","","","","null","consolidated-trial-data","null","","","","","","","","","","","","","","1","8","1","","2","2","1","8","1","","0","6","39","1","883.8900000035762","1","8","","","","",""
"","","html-button-response","222","829713","0.0-216.0","","","","","964","block message","0","","","","","","","","","","","","","","","","","","","","","","","","","","","","","","","","","","",""
"","VS_instruct","html-button-response","223","830480","0.0-217.0","","","","","766","VS_instruct","0","","","","","","","","","","","","","","","","","","","","","","","","","","","","","","","","","","",""
"","VisSearch","html-button-response","224","831280","0.0-218.0","","","","","798.4000000059605","VisSearch","","","true","1","true","","","","","","","","","","","","","","","","","","","","","","","","","","","","","","",""
"","VisSearch","html-button-response","225","832113","0.0-219.0","","","","","831.2000000178814","VisSearch","","","true","1","true","","","","","","","","","","","","","","","","","","","","","","","","","","","","","","",""
"","VisSearch","html-button-response","226","832979","0.0-220.0","","","","","865.1000000238419","VisSearch","","","true","1","true","","","","","","","","","","","","","","","","","","","","","","","","","","","","","","",""
"","VisSearch","html-button-response","227","833830","0.0-221.0","","","","","849.6999999880791","VisSearch","","","true","1","true","","","","","","","","","","","","","","","","","","","","","","","","","","","","","","",""
"","VisSearch","html-button-response","228","834662","0.0-222.0","","","","","830.7999999821186","VisSearch","","","true","1","true","","","","","","","","","","","","","","","","","","","","","","","","","","","","","","",""
"","VisSearch","html-button-response","229","835463","0.0-223.0","","","","","800","VisSearch","","","true","1","true","","","","","","","","","","","","","","","","","","","","","","","","","","","","","","",""
"","VisSearch","html-button-response","230","836297","0.0-224.0","","","","","833.1999999880791","VisSearch","","","true","1","true","","","","","","","","","","","","","","","","","","","","","","","","","","","","","","",""
"","VisSearch","html-button-response","231","836947","0.0-225.0","","","","","649.6000000238419","VisSearch","","","true","1","true","","","","","","","","","","","","","","","","","","","","","","","","","","","","","","",""
"","VisSearch","html-button-response","232","837963","0.0-226.0","","","","","1014.2000000178814","VisSearch","","","true","1","true","","","","","","","","","","","","","","","","","","","","","","","","","","","","","","",""
"","VisSearch","html-button-response","233","838846","0.0-227.0","","","","","882","VisSearch","","","true","1","true","","","","","","","","","","","","","","","","","","","","","","","","","","","","","","",""
"","","html-keyboard-response","234","838850","0.0-228.0","","","","","null","","null","","","","","","","","","","","vissearch-summary-calculation","1","835.4200000047683","","","","","","","","","","","","","","","","","","","","","",""
"","DSB_instruct","html-button-response","235","839947","0.0-229.0","","","","","1096","DSB_instruct","0","","","","","","","","","","","","","","","","","","","","","","","","","","","","","","","","","","",""
"","DSB 13233902","html-keyboard-response","236","847275","0.0-230.0","","","","","","DSB","","","","","","[1,3,2,3,3,9,0,2]","8","20933231","","","","","","","","","","","","","","","","","","","","","","","","","","","",""
"","DSBrecall","html-button-response","237","875574","0.0-231.0","","","","","876932.3000000119","DSBrecall","02093331","","false","","","","","","8","3","0.375","","","","","","","","","","","","","","","","","","","","","","","","",""
"","","dsb-summary-calculation","238","875576","0.0-232.0","","","","","null","","null","","","","","","","","","","","","","","0","0","0.375","876932.3000000119","","","","","","","","","","","","","","","","","",""
"","image_instruct","html-button-response","239","879176","0.0-233.0","","","","","3599","image_instruct","0","","","","","","","","","","","","","","","","","","","","","","","","","","","","","","","","","","",""
"","img9","html-keyboard-response","240","889178","0.0-234.0","","","","","null","img9","null","","","","","","","","","","","","","","","","","","3","1","","","","","","","","","","","","","","","",""
"","DSB_instruct","html-button-response","241","891811","0.0-235.0","","","","","2632","DSB_instruct","0","","","","","","","","","","","","","","","","","","","","","","","","","","","","","","","","","","",""
"","DSB 45333195","html-keyboard-response","242","899140","0.0-236.0","","","","","","DSB","","","","","","[4,5,3,3,3,1,9,5]","8","59133354","","","","","","","","","","","","","","","","","","","","","","","","","","","",""
"","DSBrecall","html-button-response","243","909145","0.0-237.0","","","","","910501.8000000119","DSBrecall","59133354","","true","","","","","","8","8","1","","","","","","","","","","","","","","","","","","","","","","","","",""
"","","dsb-summary-calculation","244","909148","0.0-238.0","","","","","null","","null","","","","","","","","","","","","","","","","","","","","1","8","1","910501.8000000119","","","","","","","","","","","",""
"","consolidated-trial-data","consolidated-trial-data","245","909148","0.0-239.0","","","","","null","consolidated-trial-data","null","","","","","","","","","","","","","","0","0","0.375","","3","1","1","8","1","","0","7","39","1","835.4200000047683","1","9","","","","",""
"","","html-button-response","246","912763","0.0-240.0","","","","","3613","block message","0","","","","","","","","","","","","","","","","","","","","","","","","","","","","","","","","","","",""
"","VS_instruct","html-button-response","247","913546","0.0-241.0","","","","","781","VS_instruct","0","","","","","","","","","","","","","","","","","","","","","","","","","","","","","","","","","","",""
"","VisSearch","html-button-response","248","914813","0.0-242.0","","","","","1265.0999999940395","VisSearch","","","true","1","true","","","","","","","","","","","","","","","","","","","","","","","","","","","","","","",""
"","VisSearch","html-button-response","249","916512","0.0-243.0","","","","","1698","VisSearch","","","true","1","true","","","","","","","","","","","","","","","","","","","","","","","","","","","","","","",""
"","VisSearch","html-button-response","250","918612","0.0-244.0","","","","","2098.7000000178814","VisSearch","","","true","1","true","","","","","","","","","","","","","","","","","","","","","","","","","","","","","","",""
"","VisSearch","html-button-response","251","920844","0.0-245.0","","","","","2231","VisSearch","","","true","1","true","","","","","","","","","","","","","","","","","","","","","","","","","","","","","","",""
"","VisSearch","html-button-response","252","922912","0.0-246.0","","","","","2067.5","VisSearch","","","true","1","true","","","","","","","","","","","","","","","","","","","","","","","","","","","","","","",""
"","VisSearch","html-button-response","253","924579","0.0-247.0","","","","","1665.2000000178814","VisSearch","","","true","1","true","","","","","","","","","","","","","","","","","","","","","","","","","","","","","","",""
"","VisSearch","html-button-response","254","925478","0.0-248.0","","","","","898.6999999880791","VisSearch","","","true","1","true","","","","","","","","","","","","","","","","","","","","","","","","","","","","","","",""
"","VisSearch","html-button-response","255","926229","0.0-249.0","","","","","750","VisSearch","","","true","1","true","","","","","","","","","","","","","","","","","","","","","","","","","","","","","","",""
"","VisSearch","html-button-response","256","926946","0.0-250.0","","","","","715.5","VisSearch","","","true","1","true","","","","","","","","","","","","","","","","","","","","","","","","","","","","","","",""
"","VisSearch","html-button-response","257","927679","0.0-251.0","","","","","731.5999999940395","VisSearch","","","true","1","true","","","","","","","","","","","","","","","","","","","","","","","","","","","","","","",""
"","","html-keyboard-response","258","927683","0.0-252.0","","","","","null","","null","","","","","","","","","","","vissearch-summary-calculation","1","1412.130000001192","","","","","","","","","","","","","","","","","","","","","",""
"","DSB_instruct","html-button-response","259","929647","0.0-253.0","","","","","1963","DSB_instruct","0","","","","","","","","","","","","","","","","","","","","","","","","","","","","","","","","","","",""
"","DSB 82510238","html-keyboard-response","260","936976","0.0-254.0","","","","","","DSB","","","","","","[8,2,5,1,0,2,3,8]","8","83201528","","","","","","","","","","","","","","","","","","","","","","","","","","","",""
"","DSBrecall","html-button-response","261","949798","0.0-255.0","","","","","951154","DSBrecall","83201528","","true","","","","","","8","8","1","","","","","","","","","","","","","","","","","","","","","","","","",""
"","","dsb-summary-calculation","262","949801","0.0-256.0","","","","","null","","null","","","","","","","","","","","","","","1","8","1","951154","","","","","","","","","","","","","","","","","",""
"","image_instruct","html-button-response","263","951181","0.0-257.0","","","","","1379","image_instruct","0","","","","","","","","","","","","","","","","","","","","","","","","","","","","","","","","","","",""
"","img2","html-keyboard-response","264","961184","0.0-258.0","","","","","null","img2","null","","","","","","","","","","","","","","","","","","2","2","","","","","","","","","","","","","","","",""
"","DSB_instruct","html-button-response","265","963900","0.0-259.0","","","","","2714","DSB_instruct","0","","","","","","","","","","","","","","","","","","","","","","","","","","","","","","","","","","",""
"","DSB 19642607","html-keyboard-response","266","971228","0.0-260.0","","","","","","DSB","","","","","","[1,9,6,4,2,6,0,7]","8","70624691","","","","","","","","","","","","","","","","","","","","","","","","","","","",""
"","DSBrecall","html-button-response","267","986751","0.0-261.0","","","","","988105.900000006","DSBrecall","70624691","","true","","","","","","8","8","1","","","","","","","","","","","","","","","","","","","","","","","","",""
"","","dsb-summary-calculation","268","986754","0.0-262.0","","","","","null","","null","","","","","","","","","","","","","","","","","","","","1","8","1","988105.900000006","","","","","","","","","","","",""
"","consolidated-trial-data","consolidated-trial-data","269","986754","0.0-263.0","","","","","null","consolidated-trial-data","null","","","","","","","","","","","","","","1","8","1","","2","2","1","8","1","","0","8","39","1","1412.130000001192","1","2","","","","",""
"","attncheck","html-button-response","270","988801","0.0-264.0","","","","","2046","attncheck","0","","","","","","","","","","","","","","","","","","","","","","","","","","","","","","","true","Stop","","",""
"","","html-button-response","271","990301","0.0-265.0","","","","","1499","block message","0","","","","","","","","","","","","","","","","","","","","","","","","","","","","","","","","","","",""
"","VS_instruct","html-button-response","272","991168","0.0-266.0","","","","","866","VS_instruct","0","","","","","","","","","","","","","","","","","","","","","","","","","","","","","","","","","","",""
"","VisSearch","html-button-response","273","992051","0.0-267.0","","","","","882.0999999940395","VisSearch","","","true","1","true","","","","","","","","","","","","","","","","","","","","","","","","","","","","","","",""
"","VisSearch","html-button-response","274","993018","0.0-268.0","","","","","965.4000000059605","VisSearch","","","true","1","true","","","","","","","","","","","","","","","","","","","","","","","","","","","","","","",""
"","VisSearch","html-button-response","275","993851","0.0-269.0","","","","","831.7000000178814","VisSearch","","","true","1","true","","","","","","","","","","","","","","","","","","","","","","","","","","","","","","",""
"","VisSearch","html-button-response","276","994768","0.0-270.0","","","","","916","VisSearch","","","true","1","true","","","","","","","","","","","","","","","","","","","","","","","","","","","","","","",""
"","VisSearch","html-button-response","277","995485","0.0-271.0","","","","","715.9000000059605","VisSearch","","","true","1","true","","","","","","","","","","","","","","","","","","","","","","","","","","","","","","",""
"","VisSearch","html-button-response","278","996152","0.0-272.0","","","","","664.8000000119209","VisSearch","","","true","1","true","","","","","","","","","","","","","","","","","","","","","","","","","","","","","","",""
"","VisSearch","html-button-response","279","997035","0.0-273.0","","","","","882.2000000178814","VisSearch","","","true","1","true","","","","","","","","","","","","","","","","","","","","","","","","","","","","","","",""
"","VisSearch","html-button-response","280","998118","0.0-274.0","","","","","1082.199999988079","VisSearch","","","true","1","true","","","","","","","","","","","","","","","","","","","","","","","","","","","","","","",""
"","VisSearch","html-button-response","281","998785","0.0-275.0","","","","","665.1999999880791","VisSearch","","","true","1","true","","","","","","","","","","","","","","","","","","","","","","","","","","","","","","",""
"","VisSearch","html-button-response","282","999520","0.0-276.0","","","","","734.1999999880791","VisSearch","","","true","1","true","","","","","","","","","","","","","","","","","","","","","","","","","","","","","","",""
"","","html-keyboard-response","283","999522","0.0-277.0","","","","","null","","null","","","","","","","","","","","vissearch-summary-calculation","1","833.9700000017881","","","","","","","","","","","","","","","","","","","","","",""
"","DSB_instruct","html-button-response","284","1003035","0.0-278.0","","","","","3512","DSB_instruct","0","","","","","","","","","","","","","","","","","","","","","","","","","","","","","","","","","","",""
"","DSB 68377758","html-keyboard-response","285","1010363","0.0-279.0","","","","","","DSB","","","","","","[6,8,3,7,7,7,5,8]","8","85777386","","","","","","","","","","","","","","","","","","","","","","","","","","","",""
"","DSBrecall","html-button-response","286","1020403","0.0-280.0","","","","","1021757","DSBrecall","85777386","","true","","","","","","8","8","1","","","","","","","","","","","","","","","","","","","","","","","","",""
"","","dsb-summary-calculation","287","1020406","0.0-281.0","","","","","null","","null","","","","","","","","","","","","","","1","8","1","1021757","","","","","","","","","","","","","","","","","",""
"","image_instruct","html-button-response","288","1027505","0.0-282.0","","","","","7098","image_instruct","0","","","","","","","","","","","","","","","","","","","","","","","","","","","","","","","","","","",""
"","img1","html-keyboard-response","289","1037508","0.0-283.0","","","","","null","img1","null","","","","","","","","","","","","","","","","","","1","1","","","","","","","","","","","","","","","",""
"","DSB_instruct","html-button-response","290","1041322","0.0-284.0","","","","","3812","DSB_instruct","0","","","","","","","","","","","","","","","","","","","","","","","","","","","","","","","","","","",""
"","DSB 88008288","html-keyboard-response","291","1048651","0.0-285.0","","","","","","DSB","","","","","","[8,8,0,0,8,2,8,8]","8","88280088","","","","","","","","","","","","","","","","","","","","","","","","","","","",""
"","DSBrecall","html-button-response","292","1058157","0.0-286.0","","","","","1059509.099999994","DSBrecall","88280088","","true","","","","","","8","8","1","","","","","","","","","","","","","","","","","","","","","","","","",""
"","","dsb-summary-calculation","293","1058159","0.0-287.0","","","","","null","","null","","","","","","","","","","","","","","","","","","","","1","8","1","1059509.099999994","","","","","","","","","","","",""
"","consolidated-trial-data","consolidated-trial-data","294","1058160","0.0-288.0","","","","","null","consolidated-trial-data","null","","","","","","","","","","","","","","1","8","1","","1","1","1","8","1","","0","9","39","1","833.9700000017881","1","1","","","","",""
"","","html-button-response","295","1059791","0.0-289.0","","","","","1630","block message","0","","","","","","","","","","","","","","","","","","","","","","","","","","","","","","","","","","",""
"","VS_instruct","html-button-response","296","1060540","0.0-290.0","","","","","747","VS_instruct","0","","","","","","","","","","","","","","","","","","","","","","","","","","","","","","","","","","",""
"","VisSearch","html-button-response","297","1062190","0.0-291.0","","","","","1649.3999999761581","VisSearch","","","true","2","true","","","","","","","","","","","","","","","","","","","","","","","","","","","","","","",""
"","VisSearch","html-button-response","298","1064223","0.0-292.0","","","","","2032.199999988079","VisSearch","","","true","2","true","","","","","","","","","","","","","","","","","","","","","","","","","","","","","","",""
"","VisSearch","html-button-response","299","1065340","0.0-293.0","","","","","1116.2999999821186","VisSearch","","","true","2","true","","","","","","","","","","","","","","","","","","","","","","","","","","","","","","",""
"","VisSearch","html-button-response","300","1067507","0.0-294.0","","","","","2165.5","VisSearch","","","true","2","true","","","","","","","","","","","","","","","","","","","","","","","","","","","","","","",""
"","VisSearch","html-button-response","301","1068874","0.0-295.0","","","","","1365.6000000238419","VisSearch","","","true","2","true","","","","","","","","","","","","","","","","","","","","","","","","","","","","","","",""
"","VisSearch","html-button-response","302","1071376","0.0-296.0","","","","","null","VisSearch","","","false","2","true","","","","","","","","","","","","","","","","","","","","","","","","","","","","","","",""
"","VisSearch","html-button-response","303","1073524","0.0-297.0","","","","","2147.0999999940395","VisSearch","","","true","2","true","","","","","","","","","","","","","","","","","","","","","","","","","","","","","","",""
"","VisSearch","html-button-response","304","1074758","0.0-298.0","","","","","1232.300000011921","VisSearch","","","true","2","true","","","","","","","","","","","","","","","","","","","","","","","","","","","","","","",""
"","VisSearch","html-button-response","305","1077261","0.0-299.0","","","","","null","VisSearch","","","false","2","true","","","","","","","","","","","","","","","","","","","","","","","","","","","","","","",""
"","VisSearch","html-button-response","306","1079763","0.0-300.0","","","","","null","VisSearch","","","false","2","true","","","","","","","","","","","","","","","","","","","","","","","","","","","","","","",""
"","","html-keyboard-response","307","1079768","0.0-301.0","","","","","null","","null","","","","","","","","","","","vissearch-summary-calculation","0.7","1672.6285714251655","","","","","","","","","","","","","","","","","","","","","",""
"","DSB_instruct","html-button-response","308","1087892","0.0-302.0","","","","","8122","DSB_instruct","0","","","","","","","","","","","","","","","","","","","","","","","","","","","","","","","","","","",""
"","DSB 95126990","html-keyboard-response","309","1095222","0.0-303.0","","","","","","DSB","","","","","","[9,5,1,2,6,9,9,0]","8","09962159","","","","","","","","","","","","","","","","","","","","","","","","","","","",""
"","DSBrecall","html-button-response","310","1104927","0.0-304.0","","","","","1106278.2000000179","DSBrecall","09962159","","true","","","","","","8","8","1","","","","","","","","","","","","","","","","","","","","","","","","",""
"","","dsb-summary-calculation","311","1104930","0.0-305.0","","","","","null","","null","","","","","","","","","","","","","","1","8","1","1106278.2000000179","","","","","","","","","","","","","","","","","",""
"","image_instruct","html-button-response","312","1105861","0.0-306.0","","","","","930","image_instruct","0","","","","","","","","","","","","","","","","","","","","","","","","","","","","","","","","","","",""
"","img3","html-keyboard-response","313","1115864","0.0-307.0","","","","","null","img3","null","","","","","","","","","","","","","","","","","","3","2","","","","","","","","","","","","","","","",""
"","DSB_instruct","html-button-response","314","1119613","0.0-308.0","","","","","3747","DSB_instruct","0","","","","","","","","","","","","","","","","","","","","","","","","","","","","","","","","","","",""
"","DSB 48913402","html-keyboard-response","315","1126944","0.0-309.0","","","","","","DSB","","","","","","[4,8,9,1,3,4,0,2]","8","20431984","","","","","","","","","","","","","","","","","","","","","","","","","","","",""
"","DSBrecall","html-button-response","316","1141780","0.0-310.0","","","","","1143130.300000012","DSBrecall","20431984","","true","","","","","","8","8","1","","","","","","","","","","","","","","","","","","","","","","","","",""
"","","dsb-summary-calculation","317","1141783","0.0-311.0","","","","","null","","null","","","","","","","","","","","","","","","","","","","","1","8","1","1143130.300000012","","","","","","","","","","","",""
"","consolidated-trial-data","consolidated-trial-data","318","1141783","0.0-312.0","","","","","null","consolidated-trial-data","null","","","","","","","","","","","","","","1","8","1","","3","2","1","8","1","","1","0","39","2","1672.6285714251655","0.7","3","","","","",""
"","","html-button-response","319","1144498","0.0-313.0","","","","","2713","block message","0","","","","","","","","","","","","","","","","","","","","","","","","","","","","","","","","","","",""
"","VS_instruct","html-button-response","320","1145163","0.0-314.0","","","","","664","VS_instruct","0","","","","","","","","","","","","","","","","","","","","","","","","","","","","","","","","","","",""
"","VisSearch","html-button-response","321","1146264","0.0-315.0","","","","","1099.0999999940395","VisSearch","","","true","2","true","","","","","","","","","","","","","","","","","","","","","","","","","","","","","","",""
"","VisSearch","html-button-response","322","1147097","0.0-316.0","","","","","832.1999999880791","VisSearch","","","true","2","true","","","","","","","","","","","","","","","","","","","","","","","","","","","","","","",""
"","VisSearch","html-button-response","323","1147897","0.0-317.0","","","","","798.8000000119209","VisSearch","","","true","2","true","","","","","","","","","","","","","","","","","","","","","","","","","","","","","","",""
"","VisSearch","html-button-response","324","1150400","0.0-318.0","","","","","null","VisSearch","","","false","2","true","","","","","","","","","","","","","","","","","","","","","","","","","","","","","","",""
"","VisSearch","html-button-response","325","1151565","0.0-319.0","","","","","1162.7000000178814","VisSearch","","","true","2","true","","","","","","","","","","","","","","","","","","","","","","","","","","","","","","",""
"","VisSearch","html-button-response","326","1152531","0.0-320.0","","","","","965.1000000238419","VisSearch","","","true","2","true","","","","","","","","","","","","","","","","","","","","","","","","","","","","","","",""
"","VisSearch","html-button-response","327","1153447","0.0-321.0","","","","","915.5999999940395","VisSearch","","","true","2","true","","","","","","","","","","","","","","","","","","","","","","","","","","","","","","",""
"","VisSearch","html-button-response","328","1155951","0.0-322.0","","","","","null","VisSearch","","","false","2","true","","","","","","","","","","","","","","","","","","","","","","","","","","","","","","",""
"","VisSearch","html-button-response","329","1157181","0.0-323.0","","","","","1229.699999988079","VisSearch","","","true","2","true","","","","","","","","","","","","","","","","","","","","","","","","","","","","","","",""
"","VisSearch","html-button-response","330","1158665","0.0-324.0","","","","","1482.2999999821186","VisSearch","","","true","2","true","","","","","","","","","","","","","","","","","","","","","","","","","","","","","","",""
"","","html-keyboard-response","331","1158667","0.0-325.0","","","","","null","","null","","","","","","","","","","","vissearch-summary-calculation","0.8","1060.6875","","","","","","","","","","","","","","","","","","","","","",""
"","DSB_instruct","html-button-response","332","1163499","0.0-326.0","","","","","4831","DSB_instruct","0","","","","","","","","","","","","","","","","","","","","","","","","","","","","","","","","","","",""
"","DSB 00125520","html-keyboard-response","333","1170829","0.0-327.0","","","","","","DSB","","","","","","[0,0,1,2,5,5,2,0]","8","02552100","","","","","","","","","","","","","","","","","","","","","","","","","","","",""
"","DSBrecall","html-button-response","334","1181317","0.0-328.0","","","","","1182665.400000006","DSBrecall","02552100","","true","","","","","","8","8","1","","","","","","","","","","","","","","","","","","","","","","","","",""
"","","dsb-summary-calculation","335","1181319","0.0-329.0","","","","","null","","null","","","","","","","","","","","","","","1","8","1","1182665.400000006","","","","","","","","","","","","","","","","","",""
"","image_instruct","html-button-response","336","1182216","0.0-330.0","","","","","896","image_instruct","0","","","","","","","","","","","","","","","","","","","","","","","","","","","","","","","","","","",""
"","img6","html-keyboard-response","337","1192220","0.0-331.0","","","","","null","img6","null","","","","","","","","","","","","","","","","","","3","2","","","","","","","","","","","","","","","",""
"","DSB_instruct","html-button-response","338","1193435","0.0-332.0","","","","","1214","DSB_instruct","0","","","","","","","","","","","","","","","","","","","","","","","","","","","","","","","","","","",""
"","DSB 00239255","html-keyboard-response","339","1200766","0.0-333.0","","","","","","DSB","","","","","","[0,0,2,3,9,2,5,5]","8","55293200","","","","","","","","","","","","","","","","","","","","","","","","","","","",""
"","DSBrecall","html-button-response","340","1211836","0.0-334.0","","","","","1213183.400000006","DSBrecall","55293200","","true","","","","","","8","8","1","","","","","","","","","","","","","","","","","","","","","","","","",""
"","","dsb-summary-calculation","341","1211839","0.0-335.0","","","","","null","","null","","","","","","","","","","","","","","","","","","","","1","8","1","1213183.400000006","","","","","","","","","","","",""
"","consolidated-trial-data","consolidated-trial-data","342","1211839","0.0-336.0","","","","","null","consolidated-trial-data","null","","","","","","","","","","","","","","1","8","1","","3","2","1","8","1","","1","1","39","2","1060.6875","0.8","6","","","","",""
"","","html-button-response","343","1212769","0.0-337.0","","","","","929","block message","0","","","","","","","","","","","","","","","","","","","","","","","","","","","","","","","","","","",""
"","VS_instruct","html-button-response","344","1213335","0.0-338.0","","","","","565","VS_instruct","0","","","","","","","","","","","","","","","","","","","","","","","","","","","","","","","","","","",""
"","VisSearch","html-button-response","345","1215838","0.0-339.0","","","","","null","VisSearch","","","false","2","true","","","","","","","","","","","","","","","","","","","","","","","","","","","","","","",""
"","VisSearch","html-button-response","346","1217086","0.0-340.0","","","","","1246.7000000178814","VisSearch","","","true","2","true","","","","","","","","","","","","","","","","","","","","","","","","","","","","","","",""
"","VisSearch","html-button-response","347","1219252","0.0-341.0","","","","","2164.7000000178814","VisSearch","","","true","2","true","","","","","","","","","","","","","","","","","","","","","","","","","","","","","","",""
"","VisSearch","html-button-response","348","1221670","0.0-342.0","","","","","2416.5","VisSearch","","","true","2","true","","","","","","","","","","","","","","","","","","","","","","","","","","","","","","",""
"","VisSearch","html-button-response","349","1224172","0.0-343.0","","","","","null","VisSearch","","","false","2","true","","","","","","","","","","","","","","","","","","","","","","","","","","","","","","",""
"","VisSearch","html-button-response","350","1225203","0.0-344.0","","","","","1029.8999999761581","VisSearch","","","true","2","true","","","","","","","","","","","","","","","","","","","","","","","","","","","","","","",""
"","VisSearch","html-button-response","351","1226136","0.0-345.0","","","","","932.4000000059605","VisSearch","","","true","2","true","","","","","","","","","","","","","","","","","","","","","","","","","","","","","","",""
"","VisSearch","html-button-response","352","1227036","0.0-346.0","","","","","899.5","VisSearch","","","true","2","true","","","","","","","","","","","","","","","","","","","","","","","","","","","","","","",""
"","VisSearch","html-button-response","353","1228721","0.0-347.0","","","","","1683.199999988079","VisSearch","","","true","2","true","","","","","","","","","","","","","","","","","","","","","","","","","","","","","","",""
"","VisSearch","html-button-response","354","1229619","0.0-348.0","","","","","898","VisSearch","","","true","2","true","","","","","","","","","","","","","","","","","","","","","","","","","","","","","","",""
"","","html-keyboard-response","355","1229622","0.0-349.0","","","","","null","","null","","","","","","","","","","","vissearch-summary-calculation","0.8","1408.862500000745","","","","","","","","","","","","","","","","","","","","","",""
"","DSB_instruct","html-button-response","356","1232921","0.0-350.0","","","","","3297","DSB_instruct","0","","","","","","","","","","","","","","","","","","","","","","","","","","","","","","","","","","",""
"","DSB 46286089","html-keyboard-response","357","1240249","0.0-351.0","","","","","","DSB","","","","","","[4,6,2,8,6,0,8,9]","8","98068264","","","","","","","","","","","","","","","","","","","","","","","","","","","",""
"","DSBrecall","html-button-response","358","1251722","0.0-352.0","","","","","1253068.800000012","DSBrecall","98068264","","true","","","","","","8","8","1","","","","","","","","","","","","","","","","","","","","","","","","",""
"","","dsb-summary-calculation","359","1251725","0.0-353.0","","","","","null","","null","","","","","","","","","","","","","","1","8","1","1253068.800000012","","","","","","","","","","","","","","","","","",""
"","image_instruct","html-button-response","360","1253089","0.0-354.0","","","","","1364","image_instruct","0","","","","","","","","","","","","","","","","","","","","","","","","","","","","","","","","","","",""
"","img1","html-keyboard-response","361","1263093","0.0-355.0","","","","","null","img1","null","","","","","","","","","","","","","","","","","","1","1","","","","","","","","","","","","","","","",""
"","DSB_instruct","html-button-response","362","1265791","0.0-356.0","","","","","2697","DSB_instruct","0","","","","","","","","","","","","","","","","","","","","","","","","","","","","","","","","","","",""
"","DSB 25415019","html-keyboard-response","363","1273122","0.0-357.0","","","","","","DSB","","","","","","[2,5,4,1,5,0,1,9]","8","91051452","","","","","","","","","","","","","","","","","","","","","","","","","","","",""
"","DSBrecall","html-button-response","364","1287008","0.0-358.0","","","","","1288353.599999994","DSBrecall","91051452","","true","","","","","","8","8","1","","","","","","","","","","","","","","","","","","","","","","","","",""
"","","dsb-summary-calculation","365","1287010","0.0-359.0","","","","","null","","null","","","","","","","","","","","","","","","","","","","","1","8","1","1288353.599999994","","","","","","","","","","","",""
"","consolidated-trial-data","consolidated-trial-data","366","1287011","0.0-360.0","","","","","null","consolidated-trial-data","null","","","","","","","","","","","","","","1","8","1","","1","1","1","8","1","","1","2","39","2","1408.862500000745","0.8","1","","","","",""
"","","html-button-response","367","1287993","0.0-361.0","","","","","980","block message","0","","","","","","","","","","","","","","","","","","","","","","","","","","","","","","","","","","",""
"","VS_instruct","html-button-response","368","1288542","0.0-362.0","","","","","548","VS_instruct","0","","","","","","","","","","","","","","","","","","","","","","","","","","","","","","","","","","",""
"","VisSearch","html-button-response","369","1289758","0.0-363.0","","","","","1214.7999999821186","VisSearch","","","true","2","true","","","","","","","","","","","","","","","","","","","","","","","","","","","","","","",""
"","VisSearch","html-button-response","370","1291259","0.0-364.0","","","","","1499.5999999940395","VisSearch","","","true","2","true","","","","","","","","","","","","","","","","","","","","","","","","","","","","","","",""
"","VisSearch","html-button-response","371","1293762","0.0-365.0","","","","","null","VisSearch","","","false","2","true","","","","","","","","","","","","","","","","","","","","","","","","","","","","","","",""
"","VisSearch","html-button-response","372","1296263","0.0-366.0","","","","","null","VisSearch","","","false","2","true","","","","","","","","","","","","","","","","","","","","","","","","","","","","","","",""
"","VisSearch","html-button-response","373","1297209","0.0-367.0","","","","","944.4000000059605","VisSearch","","","true","2","true","","","","","","","","","","","","","","","","","","","","","","","","","","","","","","",""
"","VisSearch","html-button-response","374","1298376","0.0-368.0","","","","","1165.5","VisSearch","","","true","2","true","","","","","","","","","","","","","","","","","","","","","","","","","","","","","","",""
"","VisSearch","html-button-response","375","1299543","0.0-369.0","","","","","1165.5999999940395","VisSearch","","","true","2","true","","","","","","","","","","","","","","","","","","","","","","","","","","","","","","",""
"","VisSearch","html-button-response","376","1300826","0.0-370.0","","","","","1282.1000000238419","VisSearch","","","true","2","true","","","","","","","","","","","","","","","","","","","","","","","","","","","","","","",""
"","VisSearch","html-button-response","377","1301660","0.0-371.0","","","","","832.5999999940395","VisSearch","","","true","2","true","","","","","","","","","","","","","","","","","","","","","","","","","","","","","","",""
"","VisSearch","html-button-response","378","1303875","0.0-372.0","","","","","2214.100000023842","VisSearch","","","true","2","true","","","","","","","","","","","","","","","","","","","","","","","","","","","","","","",""
"","","html-keyboard-response","379","1303879","0.0-373.0","","","","","null","","null","","","","","","","","","","","vissearch-summary-calculation","0.8","1289.8375000022352","","","","","","","","","","","","","","","","","","","","","",""
"","DSB_instruct","html-button-response","380","1308594","0.0-374.0","","","","","4713","DSB_instruct","0","","","","","","","","","","","","","","","","","","","","","","","","","","","","","","","","","","",""
"","DSB 75656165","html-keyboard-response","381","1315922","0.0-375.0","","","","","","DSB","","","","","","[7,5,6,5,6,1,6,5]","8","56165657","","","","","","","","","","","","","","","","","","","","","","","","","","","",""
"","DSBrecall","html-button-response","382","1328961","0.0-376.0","","","","","1330305.7000000179","DSBrecall","56165657","","true","","","","","","8","8","1","","","","","","","","","","","","","","","","","","","","","","","","",""
"","","dsb-summary-calculation","383","1328965","0.0-377.0","","","","","null","","null","","","","","","","","","","","","","","1","8","1","1330305.7000000179","","","","","","","","","","","","","","","","","",""
"","image_instruct","html-button-response","384","1329829","0.0-378.0","","","","","862","image_instruct","0","","","","","","","","","","","","","","","","","","","","","","","","","","","","","","","","","","",""
"","img2","html-keyboard-response","385","1339832","0.0-379.0","","","","","null","img2","null","","","","","","","","","","","","","","","","","","2","2","","","","","","","","","","","","","","","",""
"","DSB_instruct","html-button-response","386","1342380","0.0-380.0","","","","","2547","DSB_instruct","0","","","","","","","","","","","","","","","","","","","","","","","","","","","","","","","","","","",""
"","DSB 86999452","html-keyboard-response","387","1349711","0.0-381.0","","","","","","DSB","","","","","","[8,6,9,9,9,4,5,2]","8","25499968","","","","","","","","","","","","","","","","","","","","","","","","","","","",""
"","DSBrecall","html-button-response","388","1360297","0.0-382.0","","","","","1361640.2000000179","DSBrecall","25499968","","true","","","","","","8","8","1","","","","","","","","","","","","","","","","","","","","","","","","",""
"","","dsb-summary-calculation","389","1360299","0.0-383.0","","","","","null","","null","","","","","","","","","","","","","","","","","","","","1","8","1","1361640.2000000179","","","","","","","","","","","",""
"","consolidated-trial-data","consolidated-trial-data","390","1360300","0.0-384.0","","","","","null","consolidated-trial-data","null","","","","","","","","","","","","","","1","8","1","","2","2","1","8","1","","1","3","39","2","1289.8375000022352","0.8","2","","","","",""
"","","html-button-response","391","1361298","0.0-385.0","","","","","997","block message","0","","","","","","","","","","","","","","","","","","","","","","","","","","","","","","","","","","",""
"","VS_instruct","html-button-response","392","1361932","0.0-386.0","","","","","632","VS_instruct","0","","","","","","","","","","","","","","","","","","","","","","","","","","","","","","","","","","",""
"","VisSearch","html-button-response","393","1362947","0.0-387.0","","","","","1013.7000000178814","VisSearch","","","true","2","true","","","","","","","","","","","","","","","","","","","","","","","","","","","","","","",""
"","VisSearch","html-button-response","394","1365450","0.0-388.0","","","","","null","VisSearch","","","false","2","true","","","","","","","","","","","","","","","","","","","","","","","","","","","","","","",""
"","VisSearch","html-button-response","395","1367798","0.0-389.0","","","","","2346.5999999940395","VisSearch","","","true","2","true","","","","","","","","","","","","","","","","","","","","","","","","","","","","","","",""
"","VisSearch","html-button-response","396","1370301","0.0-390.0","","","","","null","VisSearch","","","false","2","true","","","","","","","","","","","","","","","","","","","","","","","","","","","","","","",""
"","VisSearch","html-button-response","397","1372803","0.0-391.0","","","","","null","VisSearch","","","false","2","true","","","","","","","","","","","","","","","","","","","","","","","","","","","","","","",""
"","VisSearch","html-button-response","398","1373832","0.0-392.0","","","","","1027.7999999821186","VisSearch","","","true","2","true","","","","","","","","","","","","","","","","","","","","","","","","","","","","","","",""
"","VisSearch","html-button-response","399","1375482","0.0-393.0","","","","","1648.7000000178814","VisSearch","","","true","2","true","","","","","","","","","","","","","","","","","","","","","","","","","","","","","","",""
"","VisSearch","html-button-response","400","1377832","0.0-394.0","","","","","2348.699999988079","VisSearch","","","true","2","true","","","","","","","","","","","","","","","","","","","","","","","","","","","","","","",""
"","VisSearch","html-button-response","401","1380334","0.0-395.0","","","","","null","VisSearch","","","false","2","true","","","","","","","","","","","","","","","","","","","","","","","","","","","","","","",""
"","VisSearch","html-button-response","402","1381782","0.0-396.0","","","","","1447","VisSearch","","","true","2","true","","","","","","","","","","","","","","","","","","","","","","","","","","","","","","",""
"","","html-keyboard-response","403","1381786","0.0-397.0","","","","","null","","null","","","","","","","","","","","vissearch-summary-calculation","0.6","1638.75","","","","","","","","","","","","","","","","","","","","","",""
"","DSB_instruct","html-button-response","404","1387034","0.0-398.0","","","","","5247","DSB_instruct","0","","","","","","","","","","","","","","","","","","","","","","","","","","","","","","","","","","",""
"","DSB 30438954","html-keyboard-response","405","1394365","0.0-399.0","","","","","","DSB","","","","","","[3,0,4,3,8,9,5,4]","8","45983403","","","","","","","","","","","","","","","","","","","","","","","","","","","",""
"","DSBrecall","html-button-response","406","1406102","0.0-400.0","","","","","1407443.7000000179","DSBrecall","45983403","","true","","","","","","8","8","1","","","","","","","","","","","","","","","","","","","","","","","","",""
"","","dsb-summary-calculation","407","1406104","0.0-401.0","","","","","null","","null","","","","","","","","","","","","","","1","8","1","1407443.7000000179","","","","","","","","","","","","","","","","","",""
"","image_instruct","html-button-response","408","1407118","0.0-402.0","","","","","1012","image_instruct","0","","","","","","","","","","","","","","","","","","","","","","","","","","","","","","","","","","",""
"","img10","html-keyboard-response","409","1417121","0.0-403.0","","","","","null","img10","null","","","","","","","","","","","","","","","","","","null","null","","","","","","","","","","","","","","","",""
"","DSB_instruct","html-button-response","410","1419386","0.0-404.0","","","","","2264","DSB_instruct","0","","","","","","","","","","","","","","","","","","","","","","","","","","","","","","","","","","",""
"","DSB 81088033","html-keyboard-response","411","1426718","0.0-405.0","","","","","","DSB","","","","","","[8,1,0,8,8,0,3,3]","8","33088018","","","","","","","","","","","","","","","","","","","","","","","","","","","",""
"","DSBrecall","html-button-response","412","1465705","0.0-406.0","","","","","1467045.7000000179","DSBrecall","33088018","","true","","","","","","8","8","1","","","","","","","","","","","","","","","","","","","","","","","","",""
"","","dsb-summary-calculation","413","1465708","0.0-407.0","","","","","null","","null","","","","","","","","","","","","","","","","","","","","1","8","1","1467045.7000000179","","","","","","","","","","","",""
"","consolidated-trial-data","consolidated-trial-data","414","1465709","0.0-408.0","","","","","null","consolidated-trial-data","null","","","","","","","","","","","","","","1","8","1","","null","null","1","8","1","","1","4","39","2","1638.75","0.6","10","","","","",""
"","","html-button-response","415","1466707","0.0-409.0","","","","","997","block message","0","","","","","","","","","","","","","","","","","","","","","","","","","","","","","","","","","","",""
"","VS_instruct","html-button-response","416","1467224","0.0-410.0","","","","","515","VS_instruct","0","","","","","","","","","","","","","","","","","","","","","","","","","","","","","","","","","","",""
"","VisSearch","html-button-response","417","1468673","0.0-411.0","","","","","1447.5","VisSearch","","","true","2","true","","","","","","","","","","","","","","","","","","","","","","","","","","","","","","",""
"","VisSearch","html-button-response","418","1470107","0.0-412.0","","","","","1432.7000000178814","VisSearch","","","true","2","true","","","","","","","","","","","","","","","","","","","","","","","","","","","","","","",""
"","VisSearch","html-button-response","419","1471789","0.0-413.0","","","","","1681.5","VisSearch","","","true","2","true","","","","","","","","","","","","","","","","","","","","","","","","","","","","","","",""
"","VisSearch","html-button-response","420","1472974","0.0-414.0","","","","","1183.5","VisSearch","","","true","2","true","","","","","","","","","","","","","","","","","","","","","","","","","","","","","","",""
"","VisSearch","html-button-response","421","1473789","0.0-415.0","","","","","814.2999999821186","VisSearch","","","true","2","true","","","","","","","","","","","","","","","","","","","","","","","","","","","","","","",""
"","VisSearch","html-button-response","422","1476293","0.0-416.0","","","","","null","VisSearch","","","false","2","true","","","","","","","","","","","","","","","","","","","","","","","","","","","","","","",""
"","VisSearch","html-button-response","423","1478224","0.0-417.0","","","","","1930","VisSearch","","","true","2","true","","","","","","","","","","","","","","","","","","","","","","","","","","","","","","",""
"","VisSearch","html-button-response","424","1478974","0.0-418.0","","","","","748.9000000059605","VisSearch","","","true","2","true","","","","","","","","","","","","","","","","","","","","","","","","","","","","","","",""
"","VisSearch","html-button-response","425","1480290","0.0-419.0","","","","","1314.6000000238419","VisSearch","","","true","2","true","","","","","","","","","","","","","","","","","","","","","","","","","","","","","","",""
"","VisSearch","html-button-response","426","1481291","0.0-420.0","","","","","1000.1000000238419","VisSearch","","","true","2","true","","","","","","","","","","","","","","","","","","","","","","","","","","","","","","",""
"","","html-keyboard-response","427","1481294","0.0-421.0","","","","","null","","null","","","","","","","","","","","vissearch-summary-calculation","0.9","1283.6777777837383","","","","","","","","","","","","","","","","","","","","","",""
"","DSB_instruct","html-button-response","428","1485258","0.0-422.0","","","","","3963","DSB_instruct","0","","","","","","","","","","","","","","","","","","","","","","","","","","","","","","","","","","",""
"","DSB 60233918","html-keyboard-response","429","1492587","0.0-423.0","","","","","","DSB","","","","","","[6,0,2,3,3,9,1,8]","8","81933206","","","","","","","","","","","","","","","","","","","","","","","","","","","",""
"","DSBrecall","html-button-response","430","1504692","0.0-424.0","","","","","1506031.5","DSBrecall","81933206","","true","","","","","","8","8","1","","","","","","","","","","","","","","","","","","","","","","","","",""
"","","dsb-summary-calculation","431","1504695","0.0-425.0","","","","","null","","null","","","","","","","","","","","","","","1","8","1","1506031.5","","","","","","","","","","","","","","","","","",""
"","image_instruct","html-button-response","432","1505459","0.0-426.0","","","","","763","image_instruct","0","","","","","","","","","","","","","","","","","","","","","","","","","","","","","","","","","","",""
"","img9","html-keyboard-response","433","1515463","0.0-427.0","","","","","null","img9","null","","","","","","","","","","","","","","","","","","3","1","","","","","","","","","","","","","","","",""
"","DSB_instruct","html-button-response","434","1518844","0.0-428.0","","","","","3380","DSB_instruct","0","","","","","","","","","","","","","","","","","","","","","","","","","","","","","","","","","","",""
"","DSB 67577735","html-keyboard-response","435","1526175","0.0-429.0","","","","","","DSB","","","","","","[6,7,5,7,7,7,3,5]","8","53777576","","","","","","","","","","","","","","","","","","","","","","","","","","","",""
"","DSBrecall","html-button-response","436","1535461","0.0-430.0","","","","","1536799.599999994","DSBrecall","53777576","","true","","","","","","8","8","1","","","","","","","","","","","","","","","","","","","","","","","","",""
"","","dsb-summary-calculation","437","1535464","0.0-431.0","","","","","null","","null","","","","","","","","","","","","","","","","","","","","1","8","1","1536799.599999994","","","","","","","","","","","",""
"","consolidated-trial-data","consolidated-trial-data","438","1535465","0.0-432.0","","","","","null","consolidated-trial-data","null","","","","","","","","","","","","","","1","8","1","","3","1","1","8","1","","1","5","39","2","1283.6777777837383","0.9","9","","","","",""
"","attncheck","html-button-response","439","1537812","0.0-433.0","","","","","2347","attncheck","2","","","","","","","","","","","","","","","","","","","","","","","","","","","","","","","true","Next","","",""
"","","html-button-response","440","1539646","0.0-434.0","","","","","1832","block message","0","","","","","","","","","","","","","","","","","","","","","","","","","","","","","","","","","","",""
"","VS_instruct","html-button-response","441","1540362","0.0-435.0","","","","","714","VS_instruct","0","","","","","","","","","","","","","","","","","","","","","","","","","","","","","","","","","","",""
