"success","task","trial_type","trial_index","time_elapsed","internal_node_id","timeout","failed_images","failed_audio","failed_video","rt","stimulus","response","pixels_per_unit","is_correct","search_difficulty","enhanced","originalDigits","currentSpanLength","reversedDigits","span_length","correct_digits","digit_accuracy","trial_Type","VISsearch_propcorrect","VISsearch_meanRT","DSBpre_propcorrect","DSBpre_maxspan","DSBpre_digitaccuracy","DSBpre_rt","vegetationLevel","imageType","DSBpost_propcorrect","DSBpost_maxspan","DSBpost_digitaccuracy","DSBpost_rt","block","trial","trialid","VisDifficulty","Vis_meanRT","Vis_propCorr","imageIDX","attention_check_correct","target_button","question_order","image_id","iamge_set"
"true","fullscreen_enter","fullscreen","0","248967","0.0-0.0","","","","","","","","","","","","","","","","","","","","","","","","","","","","","","","","","","","","","","","","","",""
"true","","preload","1","257941","0.0-1.0","false","[]","[]","[]","","","","","","","","","","","","","","","","","","","","","","","","","","","","","","","","","","","","","",""
"","wecome","html-button-response","2","265991","0.0-2.0","","","","","8049","welcome_msg","0","","","","","","","","","","","","","","","","","","","","","","","","","","","","","","","","","","",""
"","PIS","html-button-response","3","521808","0.0-3.0","","","","","255813","PISdoc","0","","","","","","","","","","","","","","","","","","","","","","","","","","","","","","","","","","",""
"","demographics","survey-html-form","4","529743","0.0-4.0","","","","","7933","","{""age"":""33"",""gender"":""female"",""id"":""6715""}","","","","","","","","","","","","","","","","","","","","","","","","","","","","","","","","","","",""
"","","html-button-response","5","578664","0.0-5.0","","","","","48919","<div style= ""font-size: 24px; color: white; 
        position: absolute;
         top: 50%;left: 50%; transform: translate(-50%, -50%)"">        

            <br>Welcome to the experiment.<br> 
            Please read the instructions carefully.<br>
            There are two task types.<br><br>
            In the visual search task:<br>
            You must search the screen for either a red <font color = ""red"">""T"" </font>
            or blue <font color = ""blue""> ""O"" </font> hidden among red <font color = ""red""> ""X""s </font>.
            <br><br> In the digit task:<br> You must recall a list of numbers in reverse order. </div>
        ","0","","","","","","","","","","","","","","","","","","","","","","","","","","","","","","","","","","",""
"","calibration","html-button-response","6","666624","0.0-6.0","","","","","87958","calibration","0","83","","","","","","","","","","","","","","","","","","","","","","","","","","","","","","","","","",""
"","VS_instruct","html-button-response","7","672975","0.0-7.0","","","","","6350","VS_instruct","0","","","","","","","","","","","","","","","","","","","","","","","","","","","","","","","","","","",""
"","VisSearch","html-button-response","8","675383","0.0-8.0","","","","","2405.6999999284744","VisSearch","","","true","1","true","","","","","","","","","","","","","","","","","","","","","","","","","","","","","","",""
"","VisSearch","html-button-response","9","677321","0.0-9.0","","","","","1937","VisSearch","","","true","1","true","","","","","","","","","","","","","","","","","","","","","","","","","","","","","","",""
"","VisSearch","html-button-response","10","679198","0.0-10.0","","","","","1875.8999999761581","VisSearch","","","true","1","true","","","","","","","","","","","","","","","","","","","","","","","","","","","","","","",""
"","VisSearch","html-button-response","11","681615","0.0-11.0","","","","","2415.6999999284744","VisSearch","","","true","1","true","","","","","","","","","","","","","","","","","","","","","","","","","","","","","","",""
"","VisSearch","html-button-response","12","683959","0.0-12.0","","","","","2342.600000023842","VisSearch","","","true","1","true","","","","","","","","","","","","","","","","","","","","","","","","","","","","","","",""
"","VisSearch","html-button-response","13","686461","0.0-13.0","","","","","null","VisSearch","","","false","1","true","","","","","","","","","","","","","","","","","","","","","","","","","","","","","","",""
"","VisSearch","html-button-response","14","687991","0.0-14.0","","","","","1528.0999999046326","VisSearch","","","true","1","true","","","","","","","","","","","","","","","","","","","","","","","","","","","","","","",""
"","VisSearch","html-button-response","15","689247","0.0-15.0","","","","","1254.7999999523163","VisSearch","","","true","1","true","","","","","","","","","","","","","","","","","","","","","","","","","","","","","","",""
"","VisSearch","html-button-response","16","690623","0.0-16.0","","","","","1375.2000000476837","VisSearch","","","true","1","true","","","","","","","","","","","","","","","","","","","","","","","","","","","","","","",""
"","VisSearch","html-button-response","17","691791","0.0-17.0","","","","","1166.7999999523163","VisSearch","","","true","1","true","","","","","","","","","","","","","","","","","","","","","","","","","","","","","","",""
"","DSB_instruct","html-button-response","18","697063","0.0-18.0","","","","","5271","DSB_instruct","0","","","","","","","","","","","","","","","","","","","","","","","","","","","","","","","","","","",""
"","DSB 2135","html-keyboard-response","19","700824","0.0-19.0","","","","","","DSB","","","","","","[2,1,3,5]","4","5312","","","","","","","","","","","","","","","","","","","","","","","","","","","",""
"","DSBrecall","html-button-response","20","723095","0.0-20.0","","","","","726086.1999999285","DSBrecall","5321","","false","","","","","","4","2","0.5","","","","","","","","","","","","","","","","","","","","","","","","",""
"","feedback","html-button-response","21","726751","0.0-21.0","","","","","3655","<div class =""experiment-text""; style=""font-size: 13.28px;"">
            Incorrect.<br><br>
            Try to recall in the reversed order.
            </div>","0","","","","","","","","","","","","","","","","","","","","","","","","","","","","","","","","","","",""
"","DSB_instruct","html-button-response","22","729071","0.0-22.0","","","","","2319","DSB_instruct","0","","","","","","","","","","","","","","","","","","","","","","","","","","","","","","","","","","",""
"","DSB 13865470","html-keyboard-response","23","736513","0.0-23.0","","","","","","DSB","","","","","","[1,3,8,6,5,4,7,0]","8","07456831","","","","","","","","","","","","","","","","","","","","","","","","","","","",""
"","DSBrecall","html-button-response","24","785855","0.0-24.0","","","","","788846.3999999762","DSBrecall","01765218","","false","","","","","","8","1","0.125","","","","","","","","","","","","","","","","","","","","","","","","",""
"","feedback","html-button-response","25","789135","0.0-25.0","","","","","3278","<div class =""experiment-text""; style=""font-size: 13.28px;"">
            Incorrect.<br><br>
            Try to recall in the reversed order.
            </div>","0","","","","","","","","","","","","","","","","","","","","","","","","","","","","","","","","","","",""
"","VS_instruct","html-button-response","26","794383","0.0-26.0","","","","","5247","VS_instruct","0","","","","","","","","","","","","","","","","","","","","","","","","","","","","","","","","","","",""
"","VisSearch","html-button-response","27","795519","0.0-27.0","","","","","1135","VisSearch","","","true","2","true","","","","","","","","","","","","","","","","","","","","","","","","","","","","","","",""
"","VisSearch","html-button-response","28","798023","0.0-28.0","","","","","null","VisSearch","","","false","2","true","","","","","","","","","","","","","","","","","","","","","","","","","","","","","","",""
"","VisSearch","html-button-response","29","800527","0.0-29.0","","","","","null","VisSearch","","","false","2","true","","","","","","","","","","","","","","","","","","","","","","","","","","","","","","",""
"","VisSearch","html-button-response","30","802647","0.0-30.0","","","","","2119.2000000476837","VisSearch","","","true","2","true","","","","","","","","","","","","","","","","","","","","","","","","","","","","","","",""
"","VisSearch","html-button-response","31","805150","0.0-31.0","","","","","null","VisSearch","","","false","2","true","","","","","","","","","","","","","","","","","","","","","","","","","","","","","","",""
"","VisSearch","html-button-response","32","806647","0.0-32.0","","","","","1495.3999999761581","VisSearch","","","true","2","true","","","","","","","","","","","","","","","","","","","","","","","","","","","","","","",""
"","VisSearch","html-button-response","33","807878","0.0-33.0","","","","","1230.3000000715256","VisSearch","","","true","2","true","","","","","","","","","","","","","","","","","","","","","","","","","","","","","","",""
"","VisSearch","html-button-response","34","809031","0.0-34.0","","","","","1151.5","VisSearch","","","true","2","true","","","","","","","","","","","","","","","","","","","","","","","","","","","","","","",""
"","VisSearch","html-button-response","35","811537","0.0-35.0","","","","","null","VisSearch","","","false","2","true","","","","","","","","","","","","","","","","","","","","","","","","","","","","","","",""
"","VisSearch","html-button-response","36","813327","0.0-36.0","","","","","1789.1000000238419","VisSearch","","","true","2","true","","","","","","","","","","","","","","","","","","","","","","","","","","","","","","",""
"","DSB_instruct","html-button-response","37","820831","0.0-37.0","","","","","7503","DSB_instruct","0","","","","","","","","","","","","","","","","","","","","","","","","","","","","","","","","","","",""
"","DSB 5049","html-keyboard-response","38","824606","0.0-38.0","","","","","","DSB","","","","","","[5,0,4,9]","4","9405","","","","","","","","","","","","","","","","","","","","","","","","","","","",""
"","DSBrecall","html-button-response","39","839495","0.0-39.0","","","","","842486","DSBrecall","9405","","true","","","","","","4","4","1","","","","","","","","","","","","","","","","","","","","","","","","",""
"","feedback","html-button-response","40","840879","0.0-40.0","","","","","1383","<div class =""experiment-text""; style=""font-size: 13.28px;"">
            Correct!<br><br>
            Good job!
            </div>","0","","","","","","","","","","","","","","","","","","","","","","","","","","","","","","","","","","",""
"","DSB_instruct","html-button-response","41","852073","0.0-41.0","","","","","11193","DSB_instruct","0","","","","","","","","","","","","","","","","","","","","","","","","","","","","","","","","","","",""
"","DSB 63310662","html-keyboard-response","42","859458","0.0-42.0","","","","","","DSB","","","","","","[6,3,3,1,0,6,6,2]","8","26601336","","","","","","","","","","","","","","","","","","","","","","","","","","","",""
"","DSBrecall","html-button-response","43","900847","0.0-43.0","","","","","903837.7999999523","DSBrecall","26633611","","false","","","","","","8","3","0.375","","","","","","","","","","","","","","","","","","","","","","","","",""
"","feedback","html-button-response","44","902171","0.0-44.0","","","","","1323","<div class =""experiment-text""; style=""font-size: 13.28px;"">
            Incorrect.<br><br>
            Try to recall in the reversed order.
            </div>","0","","","","","","","","","","","","","","","","","","","","","","","","","","","","","","","","","","",""
"","expIntructions","html-button-response","45","908487","0.0-45.0-0.0","","","","","6315","expInstruc","0","","","","","","","","","","","","","","","","","","","","","","","","","","","","","","","","","","",""
"","expIntructions","html-button-response","46","913375","0.0-45.0-0.1","","","","","4887","expInstruc","0","","","","","","","","","","","","","","","","","","","","","","","","","","","","","","","","","","",""
"","expIntructions","html-button-response","47","929384","0.0-45.0-0.2","","","","","16008","expInstruc","0","","","","","","","","","","","","","","","","","","","","","","","","","","","","","","","","","","",""
"","expIntructions","html-button-response","48","940622","0.0-45.0-0.3","","","","","11237","expInstruc","0","","","","","","","","","","","","","","","","","","","","","","","","","","","","","","","","","","",""
"","expIntructions","html-button-response","49","956023","0.0-45.0-0.4","","","","","15400","expInstruc","0","","","","","","","","","","","","","","","","","","","","","","","","","","","","","","","","","","",""
"","expIntructions","html-button-response","50","976742","0.0-45.0-0.5","","","","","20719","expInstruc","0","","","","","","","","","","","","","","","","","","","","","","","","","","","","","","","","","","",""
"","expIntructions","html-button-response","51","978375","0.0-45.0-0.6","","","","","1631","expInstruc","0","","","","","","","","","","","","","","","","","","","","","","","","","","","","","","","","","","",""
"","","html-button-response","52","984487","0.0-46.0","","","","","6110","block message","0","","","","","","","","","","","","","","","","","","","","","","","","","","","","","","","","","","",""
"","VS_instruct","html-button-response","53","987583","0.0-47.0","","","","","3094","VS_instruct","0","","","","","","","","","","","","","","","","","","","","","","","","","","","","","","","","","","",""
"","VisSearch","html-button-response","54","990085","0.0-48.0","","","","","null","VisSearch","","","false","2","true","","","","","","","","","","","","","","","","","","","","","","","","","","","","","","",""
"","VisSearch","html-button-response","55","992588","0.0-49.0","","","","","null","VisSearch","","","false","2","true","","","","","","","","","","","","","","","","","","","","","","","","","","","","","","",""
"","VisSearch","html-button-response","56","994623","0.0-50.0","","","","","2034.2000000476837","VisSearch","","","true","2","true","","","","","","","","","","","","","","","","","","","","","","","","","","","","","","",""
"","VisSearch","html-button-response","57","997131","0.0-51.0","","","","","null","VisSearch","","","false","2","true","","","","","","","","","","","","","","","","","","","","","","","","","","","","","","",""
"","VisSearch","html-button-response","58","998719","0.0-52.0","","","","","1586.2999999523163","VisSearch","","","true","2","true","","","","","","","","","","","","","","","","","","","","","","","","","","","","","","",""
"","VisSearch","html-button-response","59","1000111","0.0-53.0","","","","","1390.7999999523163","VisSearch","","","true","2","true","","","","","","","","","","","","","","","","","","","","","","","","","","","","","","",""
"","VisSearch","html-button-response","60","1001567","0.0-54.0","","","","","1454.6999999284744","VisSearch","","","true","2","true","","","","","","","","","","","","","","","","","","","","","","","","","","","","","","",""
"","VisSearch","html-button-response","61","1002679","0.0-55.0","","","","","1110.6000000238419","VisSearch","","","true","2","true","","","","","","","","","","","","","","","","","","","","","","","","","","","","","","",""
"","VisSearch","html-button-response","62","1005185","0.0-56.0","","","","","null","VisSearch","","","false","2","true","","","","","","","","","","","","","","","","","","","","","","","","","","","","","","",""
"","VisSearch","html-button-response","63","1006742","0.0-57.0","","","","","1555.1999999284744","VisSearch","","","true","2","true","","","","","","","","","","","","","","","","","","","","","","","","","","","","","","",""
"","","html-keyboard-response","64","1006751","0.0-58.0","","","","","null","","null","","","","","","","","","","","vissearch-summary-calculation","0.6","1521.9666666388512","","","","","","","","","","","","","","","","","","","","","",""
"","DSB_instruct","html-button-response","65","1012743","0.0-59.0","","","","","5990","DSB_instruct","0","","","","","","","","","","","","","","","","","","","","","","","","","","","","","","","","","","",""
"","DSB 68343055","html-keyboard-response","66","1020140","0.0-60.0","","","","","","DSB","","","","","","[6,8,3,4,3,0,5,5]","8","55034386","","","","","","","","","","","","","","","","","","","","","","","","","","","",""
"","DSBrecall","html-button-response","67","1044047","0.0-61.0","","","","","1047037.7999999523","DSBrecall","55408611","","false","","","","","","8","2","0.25","","","","","","","","","","","","","","","","","","","","","","","","",""
"","","dsb-summary-calculation","68","1044053","0.0-62.0","","","","","null","","null","","","","","","","","","","","","","","0","0","0.25","1047037.7999999523","","","","","","","","","","","","","","","","","",""
"","image_instruct","html-button-response","69","1045367","0.0-63.0","","","","","1313","image_instruct","0","","","","","","","","","","","","","","","","","","","","","","","","","","","","","","","","","","",""
"","img8","html-keyboard-response","70","1055382","0.0-64.0","","","","","null","img8","null","","","","","","","","","","","","","","","","","","2","2","","","","","","","","","","","","","","","",""
"","DSB_instruct","html-button-response","71","1059271","0.0-65.0","","","","","3888","DSB_instruct","0","","","","","","","","","","","","","","","","","","","","","","","","","","","","","","","","","","",""
"","DSB 31735022","html-keyboard-response","72","1066682","0.0-66.0","","","","","","DSB","","","","","","[3,1,7,3,5,0,2,2]","8","22053713","","","","","","","","","","","","","","","","","","","","","","","","","","","",""
"","DSBrecall","html-button-response","73","1095518","0.0-67.0","","","","","1098509.5","DSBrecall","22555503","","false","","","","","","8","4","0.5","","","","","","","","","","","","","","","","","","","","","","","","",""
"","","dsb-summary-calculation","74","1095531","0.0-68.0","","","","","null","","null","","","","","","","","","","","","","","","","","","","","0","0","0.5","1098509.5","","","","","","","","","","","",""
"","consolidated-trial-data","consolidated-trial-data","75","1095532","0.0-69.0","","","","","null","consolidated-trial-data","null","","","","","","","","","","","","","","0","0","0.25","","2","2","0","0","0.5","","0","0","39","2","1521.9666666388512","0.6","8","","","","",""
"","","html-button-response","76","1098407","0.0-70.0","","","","","2874","block message","0","","","","","","","","","","","","","","","","","","","","","","","","","","","","","","","","","","",""
"","VS_instruct","html-button-response","77","1100159","0.0-71.0","","","","","1750","VS_instruct","0","","","","","","","","","","","","","","","","","","","","","","","","","","","","","","","","","","",""
"","VisSearch","html-button-response","78","1101950","0.0-72.0","","","","","1790.2000000476837","VisSearch","","","true","2","true","","","","","","","","","","","","","","","","","","","","","","","","","","","","","","",""
"","VisSearch","html-button-response","79","1102790","0.0-73.0","","","","","838.8000000715256","VisSearch","","","true","2","true","","","","","","","","","","","","","","","","","","","","","","","","","","","","","","",""
"","VisSearch","html-button-response","80","1104959","0.0-74.0","","","","","2167.5","VisSearch","","","true","2","true","","","","","","","","","","","","","","","","","","","","","","","","","","","","","","",""
"","VisSearch","html-button-response","81","1106184","0.0-75.0","","","","","1223.7000000476837","VisSearch","","","true","2","true","","","","","","","","","","","","","","","","","","","","","","","","","","","","","","",""
"","VisSearch","html-button-response","82","1108694","0.0-76.0","","","","","null","VisSearch","","","false","2","true","","","","","","","","","","","","","","","","","","","","","","","","","","","","","","",""
"","VisSearch","html-button-response","83","1109975","0.0-77.0","","","","","1279.2999999523163","VisSearch","","","true","2","true","","","","","","","","","","","","","","","","","","","","","","","","","","","","","","",""
"","VisSearch","html-button-response","84","1112231","0.0-78.0","","","","","2254.6999999284744","VisSearch","","","true","2","true","","","","","","","","","","","","","","","","","","","","","","","","","","","","","","",""
"","VisSearch","html-button-response","85","1114047","0.0-79.0","","","","","1814.7999999523163","VisSearch","","","true","2","true","","","","","","","","","","","","","","","","","","","","","","","","","","","","","","",""
"","VisSearch","html-button-response","86","1116326","0.0-80.0","","","","","2278.2999999523163","VisSearch","","","true","2","true","","","","","","","","","","","","","","","","","","","","","","","","","","","","","","",""
"","VisSearch","html-button-response","87","1117495","0.0-81.0","","","","","1167.3999999761581","VisSearch","","","true","2","true","","","","","","","","","","","","","","","","","","","","","","","","","","","","","","",""
"","","html-keyboard-response","88","1117508","0.0-82.0","","","","","null","","null","","","","","","","","","","","vissearch-summary-calculation","0.9","1646.0777777698304","","","","","","","","","","","","","","","","","","","","","",""
"","DSB_instruct","html-button-response","89","1128471","0.0-83.0","","","","","10962","DSB_instruct","0","","","","","","","","","","","","","","","","","","","","","","","","","","","","","","","","","","",""
"","DSB 70706203","html-keyboard-response","90","1135904","0.0-84.0","","","","","","DSB","","","","","","[7,0,7,0,6,2,0,3]","8","30260707","","","","","","","","","","","","","","","","","","","","","","","","","","","",""
"","DSBrecall","html-button-response","91","1146030","0.0-85.0","","","","","1149021.6000000238","DSBrecall","30000073","","false","","","","","","8","3","0.375","","","","","","","","","","","","","","","","","","","","","","","","",""
"","","dsb-summary-calculation","92","1146037","0.0-86.0","","","","","null","","null","","","","","","","","","","","","","","0","0","0.375","1149021.6000000238","","","","","","","","","","","","","","","","","",""
"","image_instruct","html-button-response","93","1147847","0.0-87.0","","","","","1809","image_instruct","0","","","","","","","","","","","","","","","","","","","","","","","","","","","","","","","","","","",""
"","img3","html-keyboard-response","94","1157860","0.0-88.0","","","","","null","img3","null","","","","","","","","","","","","","","","","","","3","2","","","","","","","","","","","","","","","",""
"","DSB_instruct","html-button-response","95","1159447","0.0-89.0","","","","","1587","DSB_instruct","0","","","","","","","","","","","","","","","","","","","","","","","","","","","","","","","","","","",""
"","DSB 14573162","html-keyboard-response","96","1166848","0.0-90.0","","","","","","DSB","","","","","","[1,4,5,7,3,1,6,2]","8","26137541","","","","","","","","","","","","","","","","","","","","","","","","","","","",""
"","DSBrecall","html-button-response","97","1224134","0.0-91.0","","","","","1227125.6000000238","DSBrecall","26377746","","false","","","","","","8","4","0.5","","","","","","","","","","","","","","","","","","","","","","","","",""
"","","dsb-summary-calculation","98","1224141","0.0-92.0","","","","","null","","null","","","","","","","","","","","","","","","","","","","","0","0","0.5","1227125.6000000238","","","","","","","","","","","",""
"","consolidated-trial-data","consolidated-trial-data","99","1224141","0.0-93.0","","","","","null","consolidated-trial-data","null","","","","","","","","","","","","","","0","0","0.375","","3","2","0","0","0.5","","0","1","39","2","1646.0777777698304","0.9","3","","","","",""
"","","html-button-response","100","1225839","0.0-94.0","","","","","1697","block message","0","","","","","","","","","","","","","","","","","","","","","","","","","","","","","","","","","","",""
"","VS_instruct","html-button-response","101","1227863","0.0-95.0","","","","","2023","VS_instruct","0","","","","","","","","","","","","","","","","","","","","","","","","","","","","","","","","","","",""
"","VisSearch","html-button-response","102","1229638","0.0-96.0","","","","","1773.7000000476837","VisSearch","","","true","2","true","","","","","","","","","","","","","","","","","","","","","","","","","","","","","","",""
"","VisSearch","html-button-response","103","1231286","0.0-97.0","","","","","1647.7999999523163","VisSearch","","","true","2","true","","","","","","","","","","","","","","","","","","","","","","","","","","","","","","",""
"","VisSearch","html-button-response","104","1232526","0.0-98.0","","","","","1238.7999999523163","VisSearch","","","true","2","true","","","","","","","","","","","","","","","","","","","","","","","","","","","","","","",""
"","VisSearch","html-button-response","105","1233415","0.0-99.0","","","","","887.5999999046326","VisSearch","","","true","2","true","","","","","","","","","","","","","","","","","","","","","","","","","","","","","","",""
"","VisSearch","html-button-response","106","1235919","0.0-100.0","","","","","null","VisSearch","","","false","2","true","","","","","","","","","","","","","","","","","","","","","","","","","","","","","","",""
"","VisSearch","html-button-response","107","1236854","0.0-101.0","","","","","934.5","VisSearch","","","true","2","true","","","","","","","","","","","","","","","","","","","","","","","","","","","","","","",""
"","VisSearch","html-button-response","108","1238567","0.0-102.0","","","","","1711.6999999284744","VisSearch","","","true","2","true","","","","","","","","","","","","","","","","","","","","","","","","","","","","","","",""
"","VisSearch","html-button-response","109","1239758","0.0-103.0","","","","","1190.6000000238419","VisSearch","","","true","2","true","","","","","","","","","","","","","","","","","","","","","","","","","","","","","","",""
"","VisSearch","html-button-response","110","1240590","0.0-104.0","","","","","831","VisSearch","","","true","2","true","","","","","","","","","","","","","","","","","","","","","","","","","","","","","","",""
"","VisSearch","html-button-response","111","1241759","0.0-105.0","","","","","1167.1999999284744","VisSearch","","","true","2","true","","","","","","","","","","","","","","","","","","","","","","","","","","","","","","",""
"","","html-keyboard-response","112","1241761","0.0-106.0","","","","","null","","null","","","","","","","","","","","vissearch-summary-calculation","0.9","1264.7666666375267","","","","","","","","","","","","","","","","","","","","","",""
"","DSB_instruct","html-button-response","113","1242991","0.0-107.0","","","","","1228","DSB_instruct","0","","","","","","","","","","","","","","","","","","","","","","","","","","","","","","","","","","",""
"","DSB 67890120","html-keyboard-response","114","1250399","0.0-108.0","","","","","","DSB","","","","","","[6,7,8,9,0,1,2,0]","8","02109876","","","","","","","","","","","","","","","","","","","","","","","","","","","",""
"","DSBrecall","html-button-response","115","1259761","0.0-109.0","","","","","1262751.7999999523","DSBrecall","02109876","","true","","","","","","8","8","1","","","","","","","","","","","","","","","","","","","","","","","","",""
"","","dsb-summary-calculation","116","1259767","0.0-110.0","","","","","null","","null","","","","","","","","","","","","","","1","8","1","1262751.7999999523","","","","","","","","","","","","","","","","","",""
"","image_instruct","html-button-response","117","1263431","0.0-111.0","","","","","3663","image_instruct","0","","","","","","","","","","","","","","","","","","","","","","","","","","","","","","","","","","",""
"","img9","html-keyboard-response","118","1273436","0.0-112.0","","","","","null","img9","null","","","","","","","","","","","","","","","","","","3","1","","","","","","","","","","","","","","","",""
"","DSB_instruct","html-button-response","119","1283799","0.0-113.0","","","","","10362","DSB_instruct","0","","","","","","","","","","","","","","","","","","","","","","","","","","","","","","","","","","",""
"","DSB 96744038","html-keyboard-response","120","1291194","0.0-114.0","","","","","","DSB","","","","","","[9,6,7,4,4,0,3,8]","8","83044769","","","","","","","","","","","","","","","","","","","","","","","","","","","",""
"","DSBrecall","html-button-response","121","1303502","0.0-115.0","","","","","1306493.2999999523","DSBrecall","83449677","","false","","","","","","8","3","0.375","","","","","","","","","","","","","","","","","","","","","","","","",""
"","","dsb-summary-calculation","122","1303506","0.0-116.0","","","","","null","","null","","","","","","","","","","","","","","","","","","","","0","0","0.375","1306493.2999999523","","","","","","","","","","","",""
"","consolidated-trial-data","consolidated-trial-data","123","1303507","0.0-117.0","","","","","null","consolidated-trial-data","null","","","","","","","","","","","","","","1","8","1","","3","1","0","0","0.375","","0","2","39","2","1264.7666666375267","0.9","9","","","","",""
"","","html-button-response","124","1306951","0.0-118.0","","","","","3444","block message","0","","","","","","","","","","","","","","","","","","","","","","","","","","","","","","","","","","",""
"","VS_instruct","html-button-response","125","1309759","0.0-119.0","","","","","2806","VS_instruct","0","","","","","","","","","","","","","","","","","","","","","","","","","","","","","","","","","","",""
"","VisSearch","html-button-response","126","1310742","0.0-120.0","","","","","982.2999999523163","VisSearch","","","true","2","true","","","","","","","","","","","","","","","","","","","","","","","","","","","","","","",""
"","VisSearch","html-button-response","127","1313238","0.0-121.0","","","","","2495.2000000476837","VisSearch","","","true","2","true","","","","","","","","","","","","","","","","","","","","","","","","","","","","","","",""
"","VisSearch","html-button-response","128","1315494","0.0-122.0","","","","","2255","VisSearch","","","true","2","true","","","","","","","","","","","","","","","","","","","","","","","","","","","","","","",""
"","VisSearch","html-button-response","129","1317998","0.0-123.0","","","","","null","VisSearch","","","false","2","true","","","","","","","","","","","","","","","","","","","","","","","","","","","","","","",""
"","VisSearch","html-button-response","130","1320510","0.0-124.0","","","","","null","VisSearch","","","false","2","true","","","","","","","","","","","","","","","","","","","","","","","","","","","","","","",""
"","VisSearch","html-button-response","131","1322222","0.0-125.0","","","","","1711","VisSearch","","","true","2","true","","","","","","","","","","","","","","","","","","","","","","","","","","","","","","",""
"","VisSearch","html-button-response","132","1323471","0.0-126.0","","","","","1247.2999999523163","VisSearch","","","true","2","true","","","","","","","","","","","","","","","","","","","","","","","","","","","","","","",""
"","VisSearch","html-button-response","133","1325975","0.0-127.0","","","","","null","VisSearch","","","false","2","true","","","","","","","","","","","","","","","","","","","","","","","","","","","","","","",""
"","VisSearch","html-button-response","134","1327190","0.0-128.0","","","","","1214.6000000238419","VisSearch","","","true","2","true","","","","","","","","","","","","","","","","","","","","","","","","","","","","","","",""
"","VisSearch","html-button-response","135","1329692","0.0-129.0","","","","","null","VisSearch","","","false","2","true","","","","","","","","","","","","","","","","","","","","","","","","","","","","","","",""
"","","html-keyboard-response","136","1329697","0.0-130.0","","","","","null","","null","","","","","","","","","","","vissearch-summary-calculation","0.6","1650.8999999960263","","","","","","","","","","","","","","","","","","","","","",""
"","DSB_instruct","html-button-response","137","1330711","0.0-131.0","","","","","1013","DSB_instruct","0","","","","","","","","","","","","","","","","","","","","","","","","","","","","","","","","","","",""
"","DSB 07488517","html-keyboard-response","138","1338085","0.0-132.0","","","","","","DSB","","","","","","[0,7,4,8,8,5,1,7]","8","71588470","","","","","","","","","","","","","","","","","","","","","","","","","","","",""
"","DSBrecall","html-button-response","139","1363430","0.0-133.0","","","","","1366421.3999999762","DSBrecall","71880470","","false","","","","","","8","6","0.75","","","","","","","","","","","","","","","","","","","","","","","","",""
"","","dsb-summary-calculation","140","1363436","0.0-134.0","","","","","null","","null","","","","","","","","","","","","","","0","0","0.75","1366421.3999999762","","","","","","","","","","","","","","","","","",""
"","image_instruct","html-button-response","141","1365295","0.0-135.0","","","","","1858","image_instruct","0","","","","","","","","","","","","","","","","","","","","","","","","","","","","","","","","","","",""
"","img5","html-keyboard-response","142","1375307","0.0-136.0","","","","","null","img5","null","","","","","","","","","","","","","","","","","","2","1","","","","","","","","","","","","","","","",""
"","DSB_instruct","html-button-response","143","1378351","0.0-137.0","","","","","3043","DSB_instruct","0","","","","","","","","","","","","","","","","","","","","","","","","","","","","","","","","","","",""
"","DSB 44265945","html-keyboard-response","144","1385781","0.0-138.0","","","","","","DSB","","","","","","[4,4,2,6,5,9,4,5]","8","54956244","","","","","","","","","","","","","","","","","","","","","","","","","","","",""
"","DSBrecall","html-button-response","145","1413798","0.0-139.0","","","","","1416789.5","DSBrecall","00000000","","false","","","","","","8","0","0","","","","","","","","","","","","","","","","","","","","","","","","",""
"","","dsb-summary-calculation","146","1413806","0.0-140.0","","","","","null","","null","","","","","","","","","","","","","","","","","","","","0","0","0","1416789.5","","","","","","","","","","","",""
"","consolidated-trial-data","consolidated-trial-data","147","1413806","0.0-141.0","","","","","null","consolidated-trial-data","null","","","","","","","","","","","","","","0","0","0.75","","2","1","0","0","0","","0","3","39","2","1650.8999999960263","0.6","5","","","","",""
"","","html-button-response","148","1416015","0.0-142.0","","","","","2208","block message","0","","","","","","","","","","","","","","","","","","","","","","","","","","","","","","","","","","",""
"","VS_instruct","html-button-response","149","1418431","0.0-143.0","","","","","2415","VS_instruct","0","","","","","","","","","","","","","","","","","","","","","","","","","","","","","","","","","","",""
"","VisSearch","html-button-response","150","1420375","0.0-144.0","","","","","1943.2000000476837","VisSearch","","","true","2","true","","","","","","","","","","","","","","","","","","","","","","","","","","","","","","",""
"","VisSearch","html-button-response","151","1421990","0.0-145.0","","","","","1614","VisSearch","","","true","2","true","","","","","","","","","","","","","","","","","","","","","","","","","","","","","","",""
"","VisSearch","html-button-response","152","1424254","0.0-146.0","","","","","2262.899999976158","VisSearch","","","true","2","true","","","","","","","","","","","","","","","","","","","","","","","","","","","","","","",""
"","VisSearch","html-button-response","153","1426070","0.0-147.0","","","","","1814.8999999761581","VisSearch","","","true","2","true","","","","","","","","","","","","","","","","","","","","","","","","","","","","","","",""
"","VisSearch","html-button-response","154","1427183","0.0-148.0","","","","","1111.3999999761581","VisSearch","","","true","2","true","","","","","","","","","","","","","","","","","","","","","","","","","","","","","","",""
"","VisSearch","html-button-response","155","1428446","0.0-149.0","","","","","1262.6999999284744","VisSearch","","","true","2","true","","","","","","","","","","","","","","","","","","","","","","","","","","","","","","",""
"","VisSearch","html-button-response","156","1430118","0.0-150.0","","","","","1670.6999999284744","VisSearch","","","true","2","true","","","","","","","","","","","","","","","","","","","","","","","","","","","","","","",""
"","VisSearch","html-button-response","157","1431150","0.0-151.0","","","","","1030.3999999761581","VisSearch","","","true","2","true","","","","","","","","","","","","","","","","","","","","","","","","","","","","","","",""
"","VisSearch","html-button-response","158","1432046","0.0-152.0","","","","","894.7000000476837","VisSearch","","","true","2","true","","","","","","","","","","","","","","","","","","","","","","","","","","","","","","",""
"","VisSearch","html-button-response","159","1434526","0.0-153.0","","","","","2479.2000000476837","VisSearch","","","true","2","true","","","","","","","","","","","","","","","","","","","","","","","","","","","","","","",""
"","","html-keyboard-response","160","1434532","0.0-154.0","","","","","null","","null","","","","","","","","","","","vissearch-summary-calculation","1","1608.4099999904633","","","","","","","","","","","","","","","","","","","","","",""
"","DSB_instruct","html-button-response","161","1440063","0.0-155.0","","","","","5530","DSB_instruct","0","","","","","","","","","","","","","","","","","","","","","","","","","","","","","","","","","","",""
"","DSB 34964546","html-keyboard-response","162","1447504","0.0-156.0","","","","","","DSB","","","","","","[3,4,9,6,4,5,4,6]","8","64546943","","","","","","","","","","","","","","","","","","","","","","","","","","","",""
"","DSBrecall","html-button-response","163","1499078","0.0-157.0","","","","","1502069.2999999523","DSBrecall","64536453","","false","","","","","","8","5","0.625","","","","","","","","","","","","","","","","","","","","","","","","",""
"","","dsb-summary-calculation","164","1499085","0.0-158.0","","","","","null","","null","","","","","","","","","","","","","","0","0","0.625","1502069.2999999523","","","","","","","","","","","","","","","","","",""
"","image_instruct","html-button-response","165","1501270","0.0-159.0","","","","","2184","image_instruct","0","","","","","","","","","","","","","","","","","","","","","","","","","","","","","","","","","","",""
"","img1","html-keyboard-response","166","1511280","0.0-160.0","","","","","null","img1","null","","","","","","","","","","","","","","","","","","1","1","","","","","","","","","","","","","","","",""
"","DSB_instruct","html-button-response","167","1513038","0.0-161.0","","","","","1756","DSB_instruct","0","","","","","","","","","","","","","","","","","","","","","","","","","","","","","","","","","","",""
"","DSB 89742197","html-keyboard-response","168","1520474","0.0-162.0","","","","","","DSB","","","","","","[8,9,7,4,2,1,9,7]","8","79124798","","","","","","","","","","","","","","","","","","","","","","","","","","","",""
"","DSBrecall","html-button-response","169","1552702","0.0-163.0","","","","","1555693.2999999523","DSBrecall","79126789","","false","","","","","","8","5","0.625","","","","","","","","","","","","","","","","","","","","","","","","",""
"","","dsb-summary-calculation","170","1552710","0.0-164.0","","","","","null","","null","","","","","","","","","","","","","","","","","","","","0","0","0.625","1555693.2999999523","","","","","","","","","","","",""
"","consolidated-trial-data","consolidated-trial-data","171","1552710","0.0-165.0","","","","","null","consolidated-trial-data","null","","","","","","","","","","","","","","0","0","0.625","","1","1","0","0","0.625","","0","4","39","2","1608.4099999904633","1","1","","","","",""
"","","html-button-response","172","1554110","0.0-166.0","","","","","1399","block message","0","","","","","","","","","","","","","","","","","","","","","","","","","","","","","","","","","","",""
"","VS_instruct","html-button-response","173","1556750","0.0-167.0","","","","","2640","VS_instruct","0","","","","","","","","","","","","","","","","","","","","","","","","","","","","","","","","","","",""
"","VisSearch","html-button-response","174","1558583","0.0-168.0","","","","","1831.3999999761581","VisSearch","","","true","2","true","","","","","","","","","","","","","","","","","","","","","","","","","","","","","","",""
"","VisSearch","html-button-response","175","1561085","0.0-169.0","","","","","null","VisSearch","","","false","2","true","","","","","","","","","","","","","","","","","","","","","","","","","","","","","","",""
"","VisSearch","html-button-response","176","1562918","0.0-170.0","","","","","1832.2000000476837","VisSearch","","","true","2","true","","","","","","","","","","","","","","","","","","","","","","","","","","","","","","",""
"","VisSearch","html-button-response","177","1563846","0.0-171.0","","","","","926.8999999761581","VisSearch","","","true","2","true","","","","","","","","","","","","","","","","","","","","","","","","","","","","","","",""
"","VisSearch","html-button-response","178","1564950","0.0-172.0","","","","","1103.2000000476837","VisSearch","","","true","2","true","","","","","","","","","","","","","","","","","","","","","","","","","","","","","","",""
"","VisSearch","html-button-response","179","1565895","0.0-173.0","","","","","944.1000000238419","VisSearch","","","true","2","true","","","","","","","","","","","","","","","","","","","","","","","","","","","","","","",""
"","VisSearch","html-button-response","180","1567837","0.0-174.0","","","","","1941","VisSearch","","","true","2","true","","","","","","","","","","","","","","","","","","","","","","","","","","","","","","",""
"","VisSearch","html-button-response","181","1570345","0.0-175.0","","","","","null","VisSearch","","","false","2","true","","","","","","","","","","","","","","","","","","","","","","","","","","","","","","",""
"","VisSearch","html-button-response","182","1571630","0.0-176.0","","","","","1283.8999999761581","VisSearch","","","true","2","true","","","","","","","","","","","","","","","","","","","","","","","","","","","","","","",""
"","VisSearch","html-button-response","183","1573518","0.0-177.0","","","","","1887","VisSearch","","","true","2","true","","","","","","","","","","","","","","","","","","","","","","","","","","","","","","",""
"","","html-keyboard-response","184","1573532","0.0-178.0","","","","","null","","null","","","","","","","","","","","vissearch-summary-calculation","0.8","1468.7125000059605","","","","","","","","","","","","","","","","","","","","","",""
"","DSB_instruct","html-button-response","185","1575415","0.0-179.0","","","","","1881","DSB_instruct","0","","","","","","","","","","","","","","","","","","","","","","","","","","","","","","","","","","",""
"","DSB 60046242","html-keyboard-response","186","1582864","0.0-180.0","","","","","","DSB","","","","","","[6,0,0,4,6,2,4,2]","8","24264006","","","","","","","","","","","","","","","","","","","","","","","","","","","",""
"","DSBrecall","html-button-response","187","1625342","0.0-181.0","","","","","1628333.1999999285","DSBrecall","42020246","","false","","","","","","8","1","0.125","","","","","","","","","","","","","","","","","","","","","","","","",""
"","","dsb-summary-calculation","188","1625350","0.0-182.0","","","","","null","","null","","","","","","","","","","","","","","0","0","0.125","1628333.1999999285","","","","","","","","","","","","","","","","","",""
"","image_instruct","html-button-response","189","1626807","0.0-183.0","","","","","1456","image_instruct","0","","","","","","","","","","","","","","","","","","","","","","","","","","","","","","","","","","",""
"","img10","html-keyboard-response","190","1636809","0.0-184.0","","","","","null","img10","null","","","","","","","","","","","","","","","","","","null","null","","","","","","","","","","","","","","","",""
"","DSB_instruct","html-button-response","191","1639238","0.0-185.0","","","","","2428","DSB_instruct","0","","","","","","","","","","","","","","","","","","","","","","","","","","","","","","","","","","",""
"","DSB 92052447","html-keyboard-response","192","1646652","0.0-186.0","","","","","","DSB","","","","","","[9,2,0,5,2,4,4,7]","8","74425029","","","","","","","","","","","","","","","","","","","","","","","","","","","",""
"","DSBrecall","html-button-response","193","1652382","0.0-187.0","","","","","1655373.3999999762","DSBrecall","74420559","","false","","","","","","8","5","0.625","","","","","","","","","","","","","","","","","","","","","","","","",""
"","","dsb-summary-calculation","194","1652389","0.0-188.0","","","","","null","","null","","","","","","","","","","","","","","","","","","","","0","0","0.625","1655373.3999999762","","","","","","","","","","","",""
"","consolidated-trial-data","consolidated-trial-data","195","1652389","0.0-189.0","","","","","null","consolidated-trial-data","null","","","","","","","","","","","","","","0","0","0.125","","null","null","0","0","0.625","","0","5","39","2","1468.7125000059605","0.8","10","","","","",""
"","","html-button-response","196","1653878","0.0-190.0","","","","","1488","block message","0","","","","","","","","","","","","","","","","","","","","","","","","","","","","","","","","","","",""
"","VS_instruct","html-button-response","197","1656183","0.0-191.0","","","","","2304","VS_instruct","0","","","","","","","","","","","","","","","","","","","","","","","","","","","","","","","","","","",""
"","VisSearch","html-button-response","198","1657958","0.0-192.0","","","","","1774.1999999284744","VisSearch","","","true","2","true","","","","","","","","","","","","","","","","","","","","","","","","","","","","","","",""
"","VisSearch","html-button-response","199","1658854","0.0-193.0","","","","","894.7999999523163","VisSearch","","","true","2","true","","","","","","","","","","","","","","","","","","","","","","","","","","","","","","",""
"","VisSearch","html-button-response","200","1659646","0.0-194.0","","","","","790.7999999523163","VisSearch","","","true","2","true","","","","","","","","","","","","","","","","","","","","","","","","","","","","","","",""
"","VisSearch","html-button-response","201","1660558","0.0-195.0","","","","","910.3999999761581","VisSearch","","","true","2","true","","","","","","","","","","","","","","","","","","","","","","","","","","","","","","",""
"","VisSearch","html-button-response","202","1662598","0.0-196.0","","","","","2038.7999999523163","VisSearch","","","true","2","true","","","","","","","","","","","","","","","","","","","","","","","","","","","","","","",""
"","VisSearch","html-button-response","203","1663734","0.0-197.0","","","","","1134.6000000238419","VisSearch","","","true","2","true","","","","","","","","","","","","","","","","","","","","","","","","","","","","","","",""
"","VisSearch","html-button-response","204","1665101","0.0-198.0","","","","","1366.3999999761581","VisSearch","","","true","2","true","","","","","","","","","","","","","","","","","","","","","","","","","","","","","","",""
"","VisSearch","html-button-response","205","1666142","0.0-199.0","","","","","1039.6999999284744","VisSearch","","","true","2","true","","","","","","","","","","","","","","","","","","","","","","","","","","","","","","",""
"","VisSearch","html-button-response","206","1668430","0.0-200.0","","","","","2286.2000000476837","VisSearch","","","true","2","true","","","","","","","","","","","","","","","","","","","","","","","","","","","","","","",""
"","VisSearch","html-button-response","207","1669974","0.0-201.0","","","","","1543.5","VisSearch","","","true","2","true","","","","","","","","","","","","","","","","","","","","","","","","","","","","","","",""
"","","html-keyboard-response","208","1669976","0.0-202.0","","","","","null","","null","","","","","","","","","","","vissearch-summary-calculation","1","1377.9399999737739","","","","","","","","","","","","","","","","","","","","","",""
"","DSB_instruct","html-button-response","209","1671078","0.0-203.0","","","","","1100","DSB_instruct","0","","","","","","","","","","","","","","","","","","","","","","","","","","","","","","","","","","",""
"","DSB 01892237","html-keyboard-response","210","1678484","0.0-204.0","","","","","","DSB","","","","","","[0,1,8,9,2,2,3,7]","8","73229810","","","","","","","","","","","","","","","","","","","","","","","","","","","",""
"","DSBrecall","html-button-response","211","1686142","0.0-205.0","","","","","1689133.3999999762","DSBrecall","73329810","","false","","","","","","8","7","0.875","","","","","","","","","","","","","","","","","","","","","","","","",""
"","","dsb-summary-calculation","212","1686146","0.0-206.0","","","","","null","","null","","","","","","","","","","","","","","0","0","0.875","1689133.3999999762","","","","","","","","","","","","","","","","","",""
"","image_instruct","html-button-response","213","1687374","0.0-207.0","","","","","1227","image_instruct","0","","","","","","","","","","","","","","","","","","","","","","","","","","","","","","","","","","",""
"","img4","html-keyboard-response","214","1697384","0.0-208.0","","","","","null","img4","null","","","","","","","","","","","","","","","","","","1","2","","","","","","","","","","","","","","","",""
"","DSB_instruct","html-button-response","215","1702750","0.0-209.0","","","","","5366","DSB_instruct","0","","","","","","","","","","","","","","","","","","","","","","","","","","","","","","","","","","",""
"","DSB 42750939","html-keyboard-response","216","1710174","0.0-210.0","","","","","","DSB","","","","","","[4,2,7,5,0,9,3,9]","8","93905724","","","","","","","","","","","","","","","","","","","","","","","","","","","",""
"","DSBrecall","html-button-response","217","1724878","0.0-211.0","","","","","1727869.1000000238","DSBrecall","93974200","","false","","","","","","8","3","0.375","","","","","","","","","","","","","","","","","","","","","","","","",""
"","","dsb-summary-calculation","218","1724884","0.0-212.0","","","","","null","","null","","","","","","","","","","","","","","","","","","","","0","0","0.375","1727869.1000000238","","","","","","","","","","","",""
"","consolidated-trial-data","consolidated-trial-data","219","1724885","0.0-213.0","","","","","null","consolidated-trial-data","null","","","","","","","","","","","","","","0","0","0.875","","1","2","0","0","0.375","","0","6","39","2","1377.9399999737739","1","4","","","","",""
"","","html-button-response","220","1726910","0.0-214.0","","","","","2025","block message","0","","","","","","","","","","","","","","","","","","","","","","","","","","","","","","","","","","",""
"","VS_instruct","html-button-response","221","1728358","0.0-215.0","","","","","1447","VS_instruct","0","","","","","","","","","","","","","","","","","","","","","","","","","","","","","","","","","","",""
"","VisSearch","html-button-response","222","1729205","0.0-216.0","","","","","845.6999999284744","VisSearch","","","true","2","true","","","","","","","","","","","","","","","","","","","","","","","","","","","","","","",""
"","VisSearch","html-button-response","223","1730463","0.0-217.0","","","","","1256.3999999761581","VisSearch","","","true","2","true","","","","","","","","","","","","","","","","","","","","","","","","","","","","","","",""
"","VisSearch","html-button-response","224","1732971","0.0-218.0","","","","","null","VisSearch","","","false","2","true","","","","","","","","","","","","","","","","","","","","","","","","","","","","","","",""
"","VisSearch","html-button-response","225","1734302","0.0-219.0","","","","","1330.5","VisSearch","","","true","2","true","","","","","","","","","","","","","","","","","","","","","","","","","","","","","","",""
"","VisSearch","html-button-response","226","1736189","0.0-220.0","","","","","1886.5999999046326","VisSearch","","","true","2","true","","","","","","","","","","","","","","","","","","","","","","","","","","","","","","",""
"","VisSearch","html-button-response","227","1736766","0.0-221.0","","","","","576","VisSearch","","","true","2","true","","","","","","","","","","","","","","","","","","","","","","","","","","","","","","",""
"","VisSearch","html-button-response","228","1738430","0.0-222.0","","","","","1662.6999999284744","VisSearch","","","true","2","true","","","","","","","","","","","","","","","","","","","","","","","","","","","","","","",""
"","VisSearch","html-button-response","229","1740278","0.0-223.0","","","","","1847.2000000476837","VisSearch","","","true","2","true","","","","","","","","","","","","","","","","","","","","","","","","","","","","","","",""
"","VisSearch","html-button-response","230","1742622","0.0-224.0","","","","","2342.100000023842","VisSearch","","","true","2","true","","","","","","","","","","","","","","","","","","","","","","","","","","","","","","",""
"","VisSearch","html-button-response","231","1744390","0.0-225.0","","","","","1767.2000000476837","VisSearch","","","true","2","true","","","","","","","","","","","","","","","","","","","","","","","","","","","","","","",""
"","","html-keyboard-response","232","1744392","0.0-226.0","","","","","null","","null","","","","","","","","","","","vissearch-summary-calculation","0.9","1501.5999999841054","","","","","","","","","","","","","","","","","","","","","",""
"","DSB_instruct","html-button-response","233","1747038","0.0-227.0","","","","","2645","DSB_instruct","0","","","","","","","","","","","","","","","","","","","","","","","","","","","","","","","","","","",""
"","DSB 27559494","html-keyboard-response","234","1754430","0.0-228.0","","","","","","DSB","","","","","","[2,7,5,5,9,4,9,4]","8","49495572","","","","","","","","","","","","","","","","","","","","","","","","","","","",""
"","DSBrecall","html-button-response","235","1764438","0.0-229.0","","","","","1767429.1000000238","DSBrecall","49495754","","false","","","","","","8","5","0.625","","","","","","","","","","","","","","","","","","","","","","","","",""
"","","dsb-summary-calculation","236","1764444","0.0-230.0","","","","","null","","null","","","","","","","","","","","","","","0","0","0.625","1767429.1000000238","","","","","","","","","","","","","","","","","",""
"","image_instruct","html-button-response","237","1765895","0.0-231.0","","","","","1449","image_instruct","0","","","","","","","","","","","","","","","","","","","","","","","","","","","","","","","","","","",""
"","img2","html-keyboard-response","238","1775911","0.0-232.0","","","","","null","img2","null","","","","","","","","","","","","","","","","","","2","2","","","","","","","","","","","","","","","",""
"","DSB_instruct","html-button-response","239","1782630","0.0-233.0","","","","","6718","DSB_instruct","0","","","","","","","","","","","","","","","","","","","","","","","","","","","","","","","","","","",""
"","DSB 79817289","html-keyboard-response","240","1790041","0.0-234.0","","","","","","DSB","","","","","","[7,9,8,1,7,2,8,9]","8","98271897","","","","","","","","","","","","","","","","","","","","","","","","","","","",""
"","DSBrecall","html-button-response","241","1809886","0.0-235.0","","","","","1812877","DSBrecall","89728972","","false","","","","","","8","0","0","","","","","","","","","","","","","","","","","","","","","","","","",""
"","","dsb-summary-calculation","242","1809893","0.0-236.0","","","","","null","","null","","","","","","","","","","","","","","","","","","","","0","0","0","1812877","","","","","","","","","","","",""
"","consolidated-trial-data","consolidated-trial-data","243","1809894","0.0-237.0","","","","","null","consolidated-trial-data","null","","","","","","","","","","","","","","0","0","0.625","","2","2","0","0","0","","0","7","39","2","1501.5999999841054","0.9","2","","","","",""
"","","html-button-response","244","1811327","0.0-238.0","","","","","1432","block message","0","","","","","","","","","","","","","","","","","","","","","","","","","","","","","","","","","","",""
"","VS_instruct","html-button-response","245","1815278","0.0-239.0","","","","","3951","VS_instruct","0","","","","","","","","","","","","","","","","","","","","","","","","","","","","","","","","","","",""
"","VisSearch","html-button-response","246","1817366","0.0-240.0","","","","","2086.2000000476837","VisSearch","","","true","2","true","","","","","","","","","","","","","","","","","","","","","","","","","","","","","","",""
"","VisSearch","html-button-response","247","1819869","0.0-241.0","","","","","null","VisSearch","","","false","2","true","","","","","","","","","","","","","","","","","","","","","","","","","","","","","","",""
"","VisSearch","html-button-response","248","1820774","0.0-242.0","","","","","904.8999999761581","VisSearch","","","true","2","true","","","","","","","","","","","","","","","","","","","","","","","","","","","","","","",""
"","VisSearch","html-button-response","249","1821806","0.0-243.0","","","","","1030.3999999761581","VisSearch","","","true","2","true","","","","","","","","","","","","","","","","","","","","","","","","","","","","","","",""
"","VisSearch","html-button-response","250","1823190","0.0-244.0","","","","","1382.6000000238419","VisSearch","","","true","2","true","","","","","","","","","","","","","","","","","","","","","","","","","","","","","","",""
"","VisSearch","html-button-response","251","1824342","0.0-245.0","","","","","1150.0999999046326","VisSearch","","","true","2","true","","","","","","","","","","","","","","","","","","","","","","","","","","","","","","",""
"","VisSearch","html-button-response","252","1826014","0.0-246.0","","","","","1670.6000000238419","VisSearch","","","true","2","true","","","","","","","","","","","","","","","","","","","","","","","","","","","","","","",""
"","VisSearch","html-button-response","253","1827934","0.0-247.0","","","","","1918.8999999761581","VisSearch","","","true","2","true","","","","","","","","","","","","","","","","","","","","","","","","","","","","","","",""
"","VisSearch","html-button-response","254","1829360","0.0-248.0","","","","","1424.6000000238419","VisSearch","","","true","2","true","","","","","","","","","","","","","","","","","","","","","","","","","","","","","","",""
"","VisSearch","html-button-response","255","1830734","0.0-249.0","","","","","1373.5","VisSearch","","","true","2","true","","","","","","","","","","","","","","","","","","","","","","","","","","","","","","",""
"","","html-keyboard-response","256","1830737","0.0-250.0","","","","","null","","null","","","","","","","","","","","vissearch-summary-calculation","0.9","1437.9777777724796","","","","","","","","","","","","","","","","","","","","","",""
"","DSB_instruct","html-button-response","257","1832150","0.0-251.0","","","","","1412","DSB_instruct","0","","","","","","","","","","","","","","","","","","","","","","","","","","","","","","","","","","",""
"","DSB 85123250","html-keyboard-response","258","1839551","0.0-252.0","","","","","","DSB","","","","","","[8,5,1,2,3,2,5,0]","8","05232158","","","","","","","","","","","","","","","","","","","","","","","","","","","",""
"","DSBrecall","html-button-response","259","1845942","0.0-253.0","","","","","1848933","DSBrecall","00000000","","false","","","","","","8","1","0.125","","","","","","","","","","","","","","","","","","","","","","","","",""
"","","dsb-summary-calculation","260","1845949","0.0-254.0","","","","","null","","null","","","","","","","","","","","","","","0","0","0.125","1848933","","","","","","","","","","","","","","","","","",""
"","image_instruct","html-button-response","261","1847389","0.0-255.0","","","","","1440","image_instruct","0","","","","","","","","","","","","","","","","","","","","","","","","","","","","","","","","","","",""
"","img6","html-keyboard-response","262","1857392","0.0-256.0","","","","","null","img6","null","","","","","","","","","","","","","","","","","","3","2","","","","","","","","","","","","","","","",""
"","DSB_instruct","html-button-response","263","1862415","0.0-257.0","","","","","5022","DSB_instruct","0","","","","","","","","","","","","","","","","","","","","","","","","","","","","","","","","","","",""
"","DSB 85346809","html-keyboard-response","264","1869829","0.0-258.0","","","","","","DSB","","","","","","[8,5,3,4,6,8,0,9]","8","90864358","","","","","","","","","","","","","","","","","","","","","","","","","","","",""
"","DSBrecall","html-button-response","265","1880087","0.0-259.0","","","","","1883078.1000000238","DSBrecall","90860000","","false","","","","","","8","4","0.5","","","","","","","","","","","","","","","","","","","","","","","","",""
"","","dsb-summary-calculation","266","1880094","0.0-260.0","","","","","null","","null","","","","","","","","","","","","","","","","","","","","0","0","0.5","1883078.1000000238","","","","","","","","","","","",""
"","consolidated-trial-data","consolidated-trial-data","267","1880095","0.0-261.0","","","","","null","consolidated-trial-data","null","","","","","","","","","","","","","","0","0","0.125","","3","2","0","0","0.5","","0","8","39","2","1437.9777777724796","0.9","6","","","","",""
"","","html-button-response","268","1883158","0.0-262.0","","","","","3063","block message","0","","","","","","","","","","","","","","","","","","","","","","","","","","","","","","","","","","",""
"","VS_instruct","html-button-response","269","1884663","0.0-263.0","","","","","1503","VS_instruct","0","","","","","","","","","","","","","","","","","","","","","","","","","","","","","","","","","","",""
"","VisSearch","html-button-response","270","1885933","0.0-264.0","","","","","1269.5","VisSearch","","","true","2","true","","","","","","","","","","","","","","","","","","","","","","","","","","","","","","",""
"","VisSearch","html-button-response","271","1887750","0.0-265.0","","","","","1816.2000000476837","VisSearch","","","true","2","true","","","","","","","","","","","","","","","","","","","","","","","","","","","","","","",""
"","VisSearch","html-button-response","272","1890256","0.0-266.0","","","","","null","VisSearch","","","false","2","true","","","","","","","","","","","","","","","","","","","","","","","","","","","","","","",""
"","VisSearch","html-button-response","273","1891046","0.0-267.0","","","","","789","VisSearch","","","true","2","true","","","","","","","","","","","","","","","","","","","","","","","","","","","","","","",""
"","VisSearch","html-button-response","274","1892382","0.0-268.0","","","","","1335.1000000238419","VisSearch","","","true","2","true","","","","","","","","","","","","","","","","","","","","","","","","","","","","","","",""
"","VisSearch","html-button-response","275","1893527","0.0-269.0","","","","","1143.5999999046326","VisSearch","","","true","2","true","","","","","","","","","","","","","","","","","","","","","","","","","","","","","","",""
"","VisSearch","html-button-response","276","1894662","0.0-270.0","","","","","1134.3000000715256","VisSearch","","","true","2","true","","","","","","","","","","","","","","","","","","","","","","","","","","","","","","",""
"","VisSearch","html-button-response","277","1896446","0.0-271.0","","","","","1782.8000000715256","VisSearch","","","true","2","true","","","","","","","","","","","","","","","","","","","","","","","","","","","","","","",""
"","VisSearch","html-button-response","278","1898486","0.0-272.0","","","","","2038.3999999761581","VisSearch","","","true","2","true","","","","","","","","","","","","","","","","","","","","","","","","","","","","","","",""
"","VisSearch","html-button-response","279","1900758","0.0-273.0","","","","","2271.6999999284744","VisSearch","","","true","2","true","","","","","","","","","","","","","","","","","","","","","","","","","","","","","","",""
"","","html-keyboard-response","280","1900770","0.0-274.0","","","","","null","","null","","","","","","","","","","","vissearch-summary-calculation","0.9","1508.9555555582047","","","","","","","","","","","","","","","","","","","","","",""
"","DSB_instruct","html-button-response","281","1901910","0.0-275.0","","","","","1139","DSB_instruct","0","","","","","","","","","","","","","","","","","","","","","","","","","","","","","","","","","","",""
"","DSB 07534058","html-keyboard-response","282","1909296","0.0-276.0","","","","","","DSB","","","","","","[0,7,5,3,4,0,5,8]","8","85043570","","","","","","","","","","","","","","","","","","","","","","","","","","","",""
"","DSBrecall","html-button-response","283","1922086","0.0-277.0","","","","","1925077.3999999762","DSBrecall","85040000","","false","","","","","","8","5","0.625","","","","","","","","","","","","","","","","","","","","","","","","",""
"","","dsb-summary-calculation","284","1922093","0.0-278.0","","","","","null","","null","","","","","","","","","","","","","","0","0","0.625","1925077.3999999762","","","","","","","","","","","","","","","","","",""
"","image_instruct","html-button-response","285","1923374","0.0-279.0","","","","","1279","image_instruct","0","","","","","","","","","","","","","","","","","","","","","","","","","","","","","","","","","","",""
"","img7","html-keyboard-response","286","1933384","0.0-280.0","","","","","null","img7","null","","","","","","","","","","","","","","","","","","1","2","","","","","","","","","","","","","","","",""
"","DSB_instruct","html-button-response","287","1935174","0.0-281.0","","","","","1789","DSB_instruct","0","","","","","","","","","","","","","","","","","","","","","","","","","","","","","","","","","","",""
"","DSB 00988000","html-keyboard-response","288","1942603","0.0-282.0","","","","","","DSB","","","","","","[0,0,9,8,8,0,0,0]","8","00088900","","","","","","","","","","","","","","","","","","","","","","","","","","","",""
"","DSBrecall","html-button-response","289","1952142","0.0-283.0","","","","","1955133.1000000238","DSBrecall","00898000","","false","","","","","","8","5","0.625","","","","","","","","","","","","","","","","","","","","","","","","",""
"","","dsb-summary-calculation","290","1952149","0.0-284.0","","","","","null","","null","","","","","","","","","","","","","","","","","","","","0","0","0.625","1955133.1000000238","","","","","","","","","","","",""
"","consolidated-trial-data","consolidated-trial-data","291","1952150","0.0-285.0","","","","","null","consolidated-trial-data","null","","","","","","","","","","","","","","0","0","0.625","","1","2","0","0","0.625","","0","9","39","2","1508.9555555582047","0.9","7","","","","",""
"","","html-button-response","292","1955622","0.0-286.0","","","","","3471","block message","0","","","","","","","","","","","","","","","","","","","","","","","","","","","","","","","","","","",""
"","VS_instruct","html-button-response","293","1956510","0.0-287.0","","","","","887","VS_instruct","0","","","","","","","","","","","","","","","","","","","","","","","","","","","","","","","","","","",""
"","VisSearch","html-button-response","294","1957670","0.0-288.0","","","","","1158.3000000715256","VisSearch","","","true","1","true","","","","","","","","","","","","","","","","","","","","","","","","","","","","","","",""
"","VisSearch","html-button-response","295","1958982","0.0-289.0","","","","","1311.5","VisSearch","","","true","1","true","","","","","","","","","","","","","","","","","","","","","","","","","","","","","","",""
"","VisSearch","html-button-response","296","1959877","0.0-290.0","","","","","893.8999999761581","VisSearch","","","true","1","true","","","","","","","","","","","","","","","","","","","","","","","","","","","","","","",""
"","VisSearch","html-button-response","297","1961398","0.0-291.0","","","","","1519.1000000238419","VisSearch","","","true","1","true","","","","","","","","","","","","","","","","","","","","","","","","","","","","","","",""
"","VisSearch","html-button-response","298","1962608","0.0-292.0","","","","","1209.3999999761581","VisSearch","","","true","1","true","","","","","","","","","","","","","","","","","","","","","","","","","","","","","","",""
"","VisSearch","html-button-response","299","1963277","0.0-293.0","","","","","668","VisSearch","","","true","1","true","","","","","","","","","","","","","","","","","","","","","","","","","","","","","","",""
"","VisSearch","html-button-response","300","1964166","0.0-294.0","","","","","887.3000000715256","VisSearch","","","true","1","true","","","","","","","","","","","","","","","","","","","","","","","","","","","","","","",""
"","VisSearch","html-button-response","301","1965078","0.0-295.0","","","","","910.9000000953674","VisSearch","","","true","1","true","","","","","","","","","","","","","","","","","","","","","","","","","","","","","","",""
"","VisSearch","html-button-response","302","1965814","0.0-296.0","","","","","734.8000000715256","VisSearch","","","true","1","true","","","","","","","","","","","","","","","","","","","","","","","","","","","","","","",""
"","VisSearch","html-button-response","303","1966582","0.0-297.0","","","","","766.7000000476837","VisSearch","","","true","1","true","","","","","","","","","","","","","","","","","","","","","","","","","","","","","","",""
"","","html-keyboard-response","304","1966588","0.0-298.0","","","","","null","","null","","","","","","","","","","","vissearch-summary-calculation","1","1005.9900000333786","","","","","","","","","","","","","","","","","","","","","",""
"","DSB_instruct","html-button-response","305","1967886","0.0-299.0","","","","","1297","DSB_instruct","0","","","","","","","","","","","","","","","","","","","","","","","","","","","","","","","","","","",""
"","DSB 23599882","html-keyboard-response","306","1975299","0.0-300.0","","","","","","DSB","","","","","","[2,3,5,9,9,8,8,2]","8","28899532","","","","","","","","","","","","","","","","","","","","","","","","","","","",""
"","DSBrecall","html-button-response","307","1982702","0.0-301.0","","","","","1985692.8999999762","DSBrecall","28890000","","false","","","","","","8","4","0.5","","","","","","","","","","","","","","","","","","","","","","","","",""
"","","dsb-summary-calculation","308","1982708","0.0-302.0","","","","","null","","null","","","","","","","","","","","","","","0","0","0.5","1985692.8999999762","","","","","","","","","","","","","","","","","",""
"","image_instruct","html-button-response","309","1983854","0.0-303.0","","","","","1145","image_instruct","0","","","","","","","","","","","","","","","","","","","","","","","","","","","","","","","","","","",""
"","img7","html-keyboard-response","310","1993857","0.0-304.0","","","","","null","img7","null","","","","","","","","","","","","","","","","","","1","2","","","","","","","","","","","","","","","",""
"","DSB_instruct","html-button-response","311","1996254","0.0-305.0","","","","","2396","DSB_instruct","0","","","","","","","","","","","","","","","","","","","","","","","","","","","","","","","","","","",""
"","DSB 22349322","html-keyboard-response","312","2003673","0.0-306.0","","","","","","DSB","","","","","","[2,2,3,4,9,3,2,2]","8","22394322","","","","","","","","","","","","","","","","","","","","","","","","","","","",""
"","DSBrecall","html-button-response","313","2008750","0.0-307.0","","","","","2011740.8999999762","DSBrecall","22983222","","false","","","","","","8","4","0.5","","","","","","","","","","","","","","","","","","","","","","","","",""
"","","dsb-summary-calculation","314","2008756","0.0-308.0","","","","","null","","null","","","","","","","","","","","","","","","","","","","","0","0","0.5","2011740.8999999762","","","","","","","","","","","",""
"","consolidated-trial-data","consolidated-trial-data","315","2008757","0.0-309.0","","","","","null","consolidated-trial-data","null","","","","","","","","","","","","","","0","0","0.5","","1","2","0","0","0.5","","1","0","39","1","1005.9900000333786","1","7","","","","",""
"","","html-button-response","316","2009846","0.0-310.0","","","","","1088","block message","0","","","","","","","","","","","","","","","","","","","","","","","","","","","","","","","","","","",""
"","VS_instruct","html-button-response","317","2010926","0.0-311.0","","","","","1079","VS_instruct","0","","","","","","","","","","","","","","","","","","","","","","","","","","","","","","","","","","",""
"","VisSearch","html-button-response","318","2011982","0.0-312.0","","","","","1054.3999999761581","VisSearch","","","true","1","true","","","","","","","","","","","","","","","","","","","","","","","","","","","","","","",""
"","VisSearch","html-button-response","319","2012886","0.0-313.0","","","","","902.8000000715256","VisSearch","","","true","1","true","","","","","","","","","","","","","","","","","","","","","","","","","","","","","","",""
"","VisSearch","html-button-response","320","2014000","0.0-314.0","","","","","1112.5","VisSearch","","","true","1","true","","","","","","","","","","","","","","","","","","","","","","","","","","","","","","",""
"","VisSearch","html-button-response","321","2015350","0.0-315.0","","","","","1349.8000000715256","VisSearch","","","true","1","true","","","","","","","","","","","","","","","","","","","","","","","","","","","","","","",""
"","VisSearch","html-button-response","322","2016422","0.0-316.0","","","","","1070.9000000953674","VisSearch","","","true","1","true","","","","","","","","","","","","","","","","","","","","","","","","","","","","","","",""
"","VisSearch","html-button-response","323","2017494","0.0-317.0","","","","","1070.8000000715256","VisSearch","","","true","1","true","","","","","","","","","","","","","","","","","","","","","","","","","","","","","","",""
"","VisSearch","html-button-response","324","2018542","0.0-318.0","","","","","1046.3999999761581","VisSearch","","","true","1","true","","","","","","","","","","","","","","","","","","","","","","","","","","","","","","",""
"","VisSearch","html-button-response","325","2019526","0.0-319.0","","","","","983.1000000238419","VisSearch","","","true","1","true","","","","","","","","","","","","","","","","","","","","","","","","","","","","","","",""
"","VisSearch","html-button-response","326","2020318","0.0-320.0","","","","","790.8000000715256","VisSearch","","","true","1","true","","","","","","","","","","","","","","","","","","","","","","","","","","","","","","",""
"","VisSearch","html-button-response","327","2021254","0.0-321.0","","","","","934.8000000715256","VisSearch","","","true","1","true","","","","","","","","","","","","","","","","","","","","","","","","","","","","","","",""
"","","html-keyboard-response","328","2021258","0.0-322.0","","","","","null","","null","","","","","","","","","","","vissearch-summary-calculation","1","1031.6300000429153","","","","","","","","","","","","","","","","","","","","","",""
"","DSB_instruct","html-button-response","329","2022710","0.0-323.0","","","","","1450","DSB_instruct","0","","","","","","","","","","","","","","","","","","","","","","","","","","","","","","","","","","",""
"","DSB 33278485","html-keyboard-response","330","2030087","0.0-324.0","","","","","","DSB","","","","","","[3,3,2,7,8,4,8,5]","8","58487233","","","","","","","","","","","","","","","","","","","","","","","","","","","",""
"","DSBrecall","html-button-response","331","2047213","0.0-325.0","","","","","2050204.5","DSBrecall","58777233","","false","","","","","","8","6","0.75","","","","","","","","","","","","","","","","","","","","","","","","",""
"","","dsb-summary-calculation","332","2047219","0.0-326.0","","","","","null","","null","","","","","","","","","","","","","","0","0","0.75","2050204.5","","","","","","","","","","","","","","","","","",""
"","image_instruct","html-button-response","333","2048494","0.0-327.0","","","","","1274","image_instruct","0","","","","","","","","","","","","","","","","","","","","","","","","","","","","","","","","","","",""
"","img2","html-keyboard-response","334","2058502","0.0-328.0","","","","","null","img2","null","","","","","","","","","","","","","","","","","","2","2","","","","","","","","","","","","","","","",""
"","DSB_instruct","html-button-response","335","2061798","0.0-329.0","","","","","3295","DSB_instruct","0","","","","","","","","","","","","","","","","","","","","","","","","","","","","","","","","","","",""
"","DSB 64290910","html-keyboard-response","336","2069163","0.0-330.0","","","","","","DSB","","","","","","[6,4,2,9,0,9,1,0]","8","01909246","","","","","","","","","","","","","","","","","","","","","","","","","","","",""
"","DSBrecall","html-button-response","337","2104597","0.0-331.0","","","","","2107588.7999999523","DSBrecall","01902963","","false","","","","","","8","4","0.5","","","","","","","","","","","","","","","","","","","","","","","","",""
"","","dsb-summary-calculation","338","2104605","0.0-332.0","","","","","null","","null","","","","","","","","","","","","","","","","","","","","0","0","0.5","2107588.7999999523","","","","","","","","","","","",""
"","consolidated-trial-data","consolidated-trial-data","339","2104605","0.0-333.0","","","","","null","consolidated-trial-data","null","","","","","","","","","","","","","","0","0","0.75","","2","2","0","0","0.5","","1","1","39","1","1031.6300000429153","1","2","","","","",""
"","","html-button-response","340","2107926","0.0-334.0","","","","","3320","block message","0","","","","","","","","","","","","","","","","","","","","","","","","","","","","","","","","","","",""
"","VS_instruct","html-button-response","341","2108655","0.0-335.0","","","","","728","VS_instruct","0","","","","","","","","","","","","","","","","","","","","","","","","","","","","","","","","","","",""
"","VisSearch","html-button-response","342","2109606","0.0-336.0","","","","","949.1000000238419","VisSearch","","","true","1","true","","","","","","","","","","","","","","","","","","","","","","","","","","","","","","",""
"","VisSearch","html-button-response","343","2110382","0.0-337.0","","","","","774.7000000476837","VisSearch","","","true","1","true","","","","","","","","","","","","","","","","","","","","","","","","","","","","","","",""
"","VisSearch","html-button-response","344","2111294","0.0-338.0","","","","","911","VisSearch","","","true","1","true","","","","","","","","","","","","","","","","","","","","","","","","","","","","","","",""
"","VisSearch","html-button-response","345","2112230","0.0-339.0","","","","","934.7999999523163","VisSearch","","","true","1","true","","","","","","","","","","","","","","","","","","","","","","","","","","","","","","",""
"","VisSearch","html-button-response","346","2113206","0.0-340.0","","","","","974.5999999046326","VisSearch","","","true","1","true","","","","","","","","","","","","","","","","","","","","","","","","","","","","","","",""
"","VisSearch","html-button-response","347","2114015","0.0-341.0","","","","","807.5","VisSearch","","","true","1","true","","","","","","","","","","","","","","","","","","","","","","","","","","","","","","",""
"","VisSearch","html-button-response","348","2114967","0.0-342.0","","","","","951.5","VisSearch","","","true","1","true","","","","","","","","","","","","","","","","","","","","","","","","","","","","","","",""
"","VisSearch","html-button-response","349","2116030","0.0-343.0","","","","","1061.3999999761581","VisSearch","","","true","1","true","","","","","","","","","","","","","","","","","","","","","","","","","","","","","","",""
"","VisSearch","html-button-response","350","2116902","0.0-344.0","","","","","870.5","VisSearch","","","true","1","true","","","","","","","","","","","","","","","","","","","","","","","","","","","","","","",""
"","VisSearch","html-button-response","351","2117870","0.0-345.0","","","","","967.6999999284744","VisSearch","","","true","1","true","","","","","","","","","","","","","","","","","","","","","","","","","","","","","","",""
"","","html-keyboard-response","352","2117885","0.0-346.0","","","","","null","","null","","","","","","","","","","","vissearch-summary-calculation","1","920.2799999833107","","","","","","","","","","","","","","","","","","","","","",""
"","DSB_instruct","html-button-response","353","2142470","0.0-347.0","","","","","24584","DSB_instruct","0","","","","","","","","","","","","","","","","","","","","","","","","","","","","","","","","","","",""
"","DSB 22412561","html-keyboard-response","354","2149903","0.0-348.0","","","","","","DSB","","","","","","[2,2,4,1,2,5,6,1]","8","16521422","","","","","","","","","","","","","","","","","","","","","","","","","","","",""
"","DSBrecall","html-button-response","355","2193110","0.0-349.0","","","","","2196100.7999999523","DSBrecall","16521422","","true","","","","","","8","8","1","","","","","","","","","","","","","","","","","","","","","","","","",""
"","","dsb-summary-calculation","356","2193116","0.0-350.0","","","","","null","","null","","","","","","","","","","","","","","1","8","1","2196100.7999999523","","","","","","","","","","","","","","","","","",""
"","image_instruct","html-button-response","357","2195246","0.0-351.0","","","","","2129","image_instruct","0","","","","","","","","","","","","","","","","","","","","","","","","","","","","","","","","","","",""
"","img9","html-keyboard-response","358","2205260","0.0-352.0","","","","","null","img9","null","","","","","","","","","","","","","","","","","","3","1","","","","","","","","","","","","","","","",""
"","DSB_instruct","html-button-response","359","2208214","0.0-353.0","","","","","2953","DSB_instruct","0","","","","","","","","","","","","","","","","","","","","","","","","","","","","","","","","","","",""
"","DSB 51550076","html-keyboard-response","360","2215608","0.0-354.0","","","","","","DSB","","","","","","[5,1,5,5,0,0,7,6]","8","67005515","","","","","","","","","","","","","","","","","","","","","","","","","","","",""
"","DSBrecall","html-button-response","361","2226197","0.0-355.0","","","","","2229188.6999999285","DSBrecall","67002254","","false","","","","","","8","4","0.5","","","","","","","","","","","","","","","","","","","","","","","","",""
"","","dsb-summary-calculation","362","2226204","0.0-356.0","","","","","null","","null","","","","","","","","","","","","","","","","","","","","0","0","0.5","2229188.6999999285","","","","","","","","","","","",""
"","consolidated-trial-data","consolidated-trial-data","363","2226205","0.0-357.0","","","","","null","consolidated-trial-data","null","","","","","","","","","","","","","","1","8","1","","3","1","0","0","0.5","","1","2","39","1","920.2799999833107","1","9","","","","",""
"","","html-button-response","364","2227638","0.0-358.0","","","","","1433","block message","0","","","","","","","","","","","","","","","","","","","","","","","","","","","","","","","","","","",""
"","VS_instruct","html-button-response","365","2228606","0.0-359.0","","","","","967","VS_instruct","0","","","","","","","","","","","","","","","","","","","","","","","","","","","","","","","","","","",""
"","VisSearch","html-button-response","366","2230454","0.0-360.0","","","","","1846.6000000238419","VisSearch","","","true","1","true","","","","","","","","","","","","","","","","","","","","","","","","","","","","","","",""
"","VisSearch","html-button-response","367","2231389","0.0-361.0","","","","","934.5","VisSearch","","","true","1","true","","","","","","","","","","","","","","","","","","","","","","","","","","","","","","",""
"","VisSearch","html-button-response","368","2232550","0.0-362.0","","","","","1158.7999999523163","VisSearch","","","true","1","true","","","","","","","","","","","","","","","","","","","","","","","","","","","","","","",""
"","VisSearch","html-button-response","369","2233494","0.0-363.0","","","","","942.6999999284744","VisSearch","","","true","1","true","","","","","","","","","","","","","","","","","","","","","","","","","","","","","","",""
"","VisSearch","html-button-response","370","2234486","0.0-364.0","","","","","991","VisSearch","","","true","1","true","","","","","","","","","","","","","","","","","","","","","","","","","","","","","","",""
"","VisSearch","html-button-response","371","2235350","0.0-365.0","","","","","862.8999999761581","VisSearch","","","true","1","true","","","","","","","","","","","","","","","","","","","","","","","","","","","","","","",""
"","VisSearch","html-button-response","372","2236294","0.0-366.0","","","","","942.8999999761581","VisSearch","","","true","1","true","","","","","","","","","","","","","","","","","","","","","","","","","","","","","","",""
"","VisSearch","html-button-response","373","2237326","0.0-367.0","","","","","1030.6000000238419","VisSearch","","","true","1","true","","","","","","","","","","","","","","","","","","","","","","","","","","","","","","",""
"","VisSearch","html-button-response","374","2238469","0.0-368.0","","","","","1142.5","VisSearch","","","true","1","true","","","","","","","","","","","","","","","","","","","","","","","","","","","","","","",""
"","VisSearch","html-button-response","375","2239453","0.0-369.0","","","","","982.8999999761581","VisSearch","","","true","1","true","","","","","","","","","","","","","","","","","","","","","","","","","","","","","","",""
"","","html-keyboard-response","376","2239456","0.0-370.0","","","","","null","","null","","","","","","","","","","","vissearch-summary-calculation","1","1083.539999985695","","","","","","","","","","","","","","","","","","","","","",""
"","DSB_instruct","html-button-response","377","2241150","0.0-371.0","","","","","1693","DSB_instruct","0","","","","","","","","","","","","","","","","","","","","","","","","","","","","","","","","","","",""
"","DSB 21487304","html-keyboard-response","378","2248570","0.0-372.0","","","","","","DSB","","","","","","[2,1,4,8,7,3,0,4]","8","40378412","","","","","","","","","","","","","","","","","","","","","","","","","","","",""
"","DSBrecall","html-button-response","379","2279885","0.0-373.0","","","","","2282876.6999999285","DSBrecall","40387000","","false","","","","","","8","3","0.375","","","","","","","","","","","","","","","","","","","","","","","","",""
"","","dsb-summary-calculation","380","2279893","0.0-374.0","","","","","null","","null","","","","","","","","","","","","","","0","0","0.375","2282876.6999999285","","","","","","","","","","","","","","","","","",""
"","image_instruct","html-button-response","381","2280838","0.0-375.0","","","","","944","image_instruct","0","","","","","","","","","","","","","","","","","","","","","","","","","","","","","","","","","","",""
"","img4","html-keyboard-response","382","2290842","0.0-376.0","","","","","null","img4","null","","","","","","","","","","","","","","","","","","1","2","","","","","","","","","","","","","","","",""
"","DSB_instruct","html-button-response","383","2293262","0.0-377.0","","","","","2419","DSB_instruct","0","","","","","","","","","","","","","","","","","","","","","","","","","","","","","","","","","","",""
"","DSB 21901800","html-keyboard-response","384","2300675","0.0-378.0","","","","","","DSB","","","","","","[2,1,9,0,1,8,0,0]","8","00810912","","","","","","","","","","","","","","","","","","","","","","","","","","","",""
"","DSBrecall","html-button-response","385","2315582","0.0-379.0","","","","","2318572.899999976","DSBrecall","00816770","","false","","","","","","8","4","0.5","","","","","","","","","","","","","","","","","","","","","","","","",""
"","","dsb-summary-calculation","386","2315586","0.0-380.0","","","","","null","","null","","","","","","","","","","","","","","","","","","","","0","0","0.5","2318572.899999976","","","","","","","","","","","",""
"","consolidated-trial-data","consolidated-trial-data","387","2315587","0.0-381.0","","","","","null","consolidated-trial-data","null","","","","","","","","","","","","","","0","0","0.375","","1","2","0","0","0.5","","1","3","39","1","1083.539999985695","1","4","","","","",""
"","","html-button-response","388","2317166","0.0-382.0","","","","","1577","block message","0","","","","","","","","","","","","","","","","","","","","","","","","","","","","","","","","","","",""
"","VS_instruct","html-button-response","389","2318350","0.0-383.0","","","","","1183","VS_instruct","0","","","","","","","","","","","","","","","","","","","","","","","","","","","","","","","","","","",""
"","VisSearch","html-button-response","390","2319302","0.0-384.0","","","","","950.8000000715256","VisSearch","","","true","1","true","","","","","","","","","","","","","","","","","","","","","","","","","","","","","","",""
"","VisSearch","html-button-response","391","2320413","0.0-385.0","","","","","1109.5","VisSearch","","","true","1","true","","","","","","","","","","","","","","","","","","","","","","","","","","","","","","",""
"","VisSearch","html-button-response","392","2321301","0.0-386.0","","","","","887.7000000476837","VisSearch","","","true","1","true","","","","","","","","","","","","","","","","","","","","","","","","","","","","","","",""
"","VisSearch","html-button-response","393","2322214","0.0-387.0","","","","","911.2999999523163","VisSearch","","","true","1","true","","","","","","","","","","","","","","","","","","","","","","","","","","","","","","",""
"","VisSearch","html-button-response","394","2323037","0.0-388.0","","","","","822.1999999284744","VisSearch","","","true","1","true","","","","","","","","","","","","","","","","","","","","","","","","","","","","","","",""
"","VisSearch","html-button-response","395","2324286","0.0-389.0","","","","","1247.4000000953674","VisSearch","","","true","1","true","","","","","","","","","","","","","","","","","","","","","","","","","","","","","","",""
"","VisSearch","html-button-response","396","2325294","0.0-390.0","","","","","1006.7999999523163","VisSearch","","","true","1","true","","","","","","","","","","","","","","","","","","","","","","","","","","","","","","",""
"","VisSearch","html-button-response","397","2326590","0.0-391.0","","","","","1294.6000000238419","VisSearch","","","true","1","true","","","","","","","","","","","","","","","","","","","","","","","","","","","","","","",""
"","VisSearch","html-button-response","398","2327973","0.0-392.0","","","","","1382.7000000476837","VisSearch","","","true","1","true","","","","","","","","","","","","","","","","","","","","","","","","","","","","","","",""
"","VisSearch","html-button-response","399","2329165","0.0-393.0","","","","","1190.8999999761581","VisSearch","","","true","1","true","","","","","","","","","","","","","","","","","","","","","","","","","","","","","","",""
"","","html-keyboard-response","400","2329168","0.0-394.0","","","","","null","","null","","","","","","","","","","","vissearch-summary-calculation","1","1080.3900000095368","","","","","","","","","","","","","","","","","","","","","",""
"","DSB_instruct","html-button-response","401","2335989","0.0-395.0","","","","","6821","DSB_instruct","0","","","","","","","","","","","","","","","","","","","","","","","","","","","","","","","","","","",""
"","DSB 73932152","html-keyboard-response","402","2343392","0.0-396.0","","","","","","DSB","","","","","","[7,3,9,3,2,1,5,2]","8","25123937","","","","","","","","","","","","","","","","","","","","","","","","","","","",""
"","DSBrecall","html-button-response","403","2361765","0.0-397.0","","","","","2364756.5","DSBrecall","25123737","","false","","","","","","8","7","0.875","","","","","","","","","","","","","","","","","","","","","","","","",""
"","","dsb-summary-calculation","404","2361771","0.0-398.0","","","","","null","","null","","","","","","","","","","","","","","0","0","0.875","2364756.5","","","","","","","","","","","","","","","","","",""
"","image_instruct","html-button-response","405","2362974","0.0-399.0","","","","","1201","image_instruct","0","","","","","","","","","","","","","","","","","","","","","","","","","","","","","","","","","","",""
"","img5","html-keyboard-response","406","2372976","0.0-400.0","","","","","null","img5","null","","","","","","","","","","","","","","","","","","2","1","","","","","","","","","","","","","","","",""
"","DSB_instruct","html-button-response","407","2375294","0.0-401.0","","","","","2317","DSB_instruct","0","","","","","","","","","","","","","","","","","","","","","","","","","","","","","","","","","","",""
"","DSB 14150254","html-keyboard-response","408","2382687","0.0-402.0","","","","","","DSB","","","","","","[1,4,1,5,0,2,5,4]","8","45205141","","","","","","","","","","","","","","","","","","","","","","","","","","","",""
"","DSBrecall","html-button-response","409","2400845","0.0-403.0","","","","","2403836.6999999285","DSBrecall","45200101","","false","","","","","","8","6","0.75","","","","","","","","","","","","","","","","","","","","","","","","",""
"","","dsb-summary-calculation","410","2400853","0.0-404.0","","","","","null","","null","","","","","","","","","","","","","","","","","","","","0","0","0.75","2403836.6999999285","","","","","","","","","","","",""
"","consolidated-trial-data","consolidated-trial-data","411","2400854","0.0-405.0","","","","","null","consolidated-trial-data","null","","","","","","","","","","","","","","0","0","0.875","","2","1","0","0","0.75","","1","4","39","1","1080.3900000095368","1","5","","","","",""
"","","html-button-response","412","2402118","0.0-406.0","","","","","1264","block message","0","","","","","","","","","","","","","","","","","","","","","","","","","","","","","","","","","","",""
"","VS_instruct","html-button-response","413","2403206","0.0-407.0","","","","","1087","VS_instruct","0","","","","","","","","","","","","","","","","","","","","","","","","","","","","","","","","","","",""
"","VisSearch","html-button-response","414","2405046","0.0-408.0","","","","","1838.7000000476837","VisSearch","","","true","1","true","","","","","","","","","","","","","","","","","","","","","","","","","","","","","","",""
"","VisSearch","html-button-response","415","2406525","0.0-409.0","","","","","1478.4000000953674","VisSearch","","","true","1","true","","","","","","","","","","","","","","","","","","","","","","","","","","","","","","",""
"","VisSearch","html-button-response","416","2407653","0.0-410.0","","","","","1126.8000000715256","VisSearch","","","true","1","true","","","","","","","","","","","","","","","","","","","","","","","","","","","","","","",""
"","VisSearch","html-button-response","417","2408966","0.0-411.0","","","","","1310.8999999761581","VisSearch","","","true","1","true","","","","","","","","","","","","","","","","","","","","","","","","","","","","","","",""
"","VisSearch","html-button-response","418","2409878","0.0-412.0","","","","","910.8999999761581","VisSearch","","","true","1","true","","","","","","","","","","","","","","","","","","","","","","","","","","","","","","",""
"","VisSearch","html-button-response","419","2410981","0.0-413.0","","","","","1102.7999999523163","VisSearch","","","true","1","true","","","","","","","","","","","","","","","","","","","","","","","","","","","","","","",""
"","VisSearch","html-button-response","420","2411917","0.0-414.0","","","","","934.8999999761581","VisSearch","","","true","1","true","","","","","","","","","","","","","","","","","","","","","","","","","","","","","","",""
"","VisSearch","html-button-response","421","2412861","0.0-415.0","","","","","942.8999999761581","VisSearch","","","true","1","true","","","","","","","","","","","","","","","","","","","","","","","","","","","","","","",""
"","VisSearch","html-button-response","422","2413909","0.0-416.0","","","","","1046.6999999284744","VisSearch","","","true","1","true","","","","","","","","","","","","","","","","","","","","","","","","","","","","","","",""
"","VisSearch","html-button-response","423","2415109","0.0-417.0","","","","","1199.4000000953674","VisSearch","","","true","1","true","","","","","","","","","","","","","","","","","","","","","","","","","","","","","","",""
"","","html-keyboard-response","424","2415114","0.0-418.0","","","","","null","","null","","","","","","","","","","","vissearch-summary-calculation","1","1189.2400000095367","","","","","","","","","","","","","","","","","","","","","",""
"","DSB_instruct","html-button-response","425","2417006","0.0-419.0","","","","","1891","DSB_instruct","0","","","","","","","","","","","","","","","","","","","","","","","","","","","","","","","","","","",""
"","DSB 99380204","html-keyboard-response","426","2424450","0.0-420.0","","","","","","DSB","","","","","","[9,9,3,8,0,2,0,4]","8","40208399","","","","","","","","","","","","","","","","","","","","","","","","","","","",""
"","DSBrecall","html-button-response","427","2457478","0.0-421.0","","","","","2460468.7999999523","DSBrecall","40208559","","false","","","","","","8","6","0.75","","","","","","","","","","","","","","","","","","","","","","","","",""
"","","dsb-summary-calculation","428","2457485","0.0-422.0","","","","","null","","null","","","","","","","","","","","","","","0","0","0.75","2460468.7999999523","","","","","","","","","","","","","","","","","",""
"","image_instruct","html-button-response","429","2459078","0.0-423.0","","","","","1592","image_instruct","0","","","","","","","","","","","","","","","","","","","","","","","","","","","","","","","","","","",""
"","img1","html-keyboard-response","430","2469082","0.0-424.0","","","","","null","img1","null","","","","","","","","","","","","","","","","","","1","1","","","","","","","","","","","","","","","",""
"","DSB_instruct","html-button-response","431","2472526","0.0-425.0","","","","","3442","DSB_instruct","0","","","","","","","","","","","","","","","","","","","","","","","","","","","","","","","","","","",""
"","DSB 20087761","html-keyboard-response","432","2479959","0.0-426.0","","","","","","DSB","","","","","","[2,0,0,8,7,7,6,1]","8","16778002","","","","","","","","","","","","","","","","","","","","","","","","","","","",""
"","DSBrecall","html-button-response","433","2492487","0.0-427.0","","","","","2495477.7999999523","DSBrecall","16770002","","false","","","","","","8","7","0.875","","","","","","","","","","","","","","","","","","","","","","","","",""
"","","dsb-summary-calculation","434","2492493","0.0-428.0","","","","","null","","null","","","","","","","","","","","","","","","","","","","","0","0","0.875","2495477.7999999523","","","","","","","","","","","",""
"","consolidated-trial-data","consolidated-trial-data","435","2492494","0.0-429.0","","","","","null","consolidated-trial-data","null","","","","","","","","","","","","","","0","0","0.75","","1","1","0","0","0.875","","1","5","39","1","1189.2400000095367","1","1","","","","",""
"","","html-button-response","436","2493838","0.0-430.0","","","","","1343","block message","0","","","","","","","","","","","","","","","","","","","","","","","","","","","","","","","","","","",""
"","VS_instruct","html-button-response","437","2495046","0.0-431.0","","","","","1207","VS_instruct","0","","","","","","","","","","","","","","","","","","","","","","","","","","","","","","","","","","",""
