"success","task","trial_type","trial_index","time_elapsed","internal_node_id","timeout","failed_images","failed_audio","failed_video","rt","stimulus","response","pixels_per_unit","is_correct","search_difficulty","enhanced","originalDigits","currentSpanLength","reversedDigits","span_length","correct_digits","digit_accuracy","trial_Type","VISsearch_propcorrect","VISsearch_meanRT","DSBpre_propcorrect","DSBpre_maxspan","DSBpre_digitaccuracy","DSBpre_rt","vegetationLevel","imageType","DSBpost_propcorrect","DSBpost_maxspan","DSBpost_digitaccuracy","DSBpost_rt","block","trial","trialid","VisDifficulty","Vis_meanRT","Vis_propCorr","imageIDX","attention_check_correct","target_button","question_order","image_id","iamge_set"
"true","fullscreen_enter","fullscreen","0","22144","0.0-0.0","","","","","","","","","","","","","","","","","","","","","","","","","","","","","","","","","","","","","","","","","",""
"true","","preload","1","27311","0.0-1.0","false","[]","[]","[]","","","","","","","","","","","","","","","","","","","","","","","","","","","","","","","","","","","","","",""
"","wecome","html-button-response","2","34121","0.0-2.0","","","","","6809","welcome_msg","0","","","","","","","","","","","","","","","","","","","","","","","","","","","","","","","","","","",""
"","PIS","html-button-response","3","117144","0.0-3.0","","","","","83015","PISdoc","0","","","","","","","","","","","","","","","","","","","","","","","","","","","","","","","","","","",""
"","demographics","survey-html-form","4","127125","0.0-4.0","","","","","9977","","{""age"":""42"",""gender"":""female"",""id"":""8428""}","","","","","","","","","","","","","","","","","","","","","","","","","","","","","","","","","","",""
"","","html-button-response","5","165142","0.0-5.0","","","","","38013","<div style= ""font-size: 24px; color: white; 
        position: absolute;
         top: 50%;left: 50%; transform: translate(-50%, -50%)"">        

            <br>Welcome to the experiment.<br> 
            Please read the instructions carefully.<br>
            There are two task types.<br><br>
            In the visual search task:<br>
            You must search the screen for either a red <font color = ""red"">""T"" </font>
            or blue <font color = ""blue""> ""O"" </font> hidden among red <font color = ""red""> ""X""s </font>.
            <br><br> In the digit task:<br> You must recall a list of numbers in reverse order. </div>
        ","0","","","","","","","","","","","","","","","","","","","","","","","","","","","","","","","","","","",""
"","calibration","html-button-response","6","177424","0.0-6.0","","","","","12280","calibration","0","151","","","","","","","","","","","","","","","","","","","","","","","","","","","","","","","","","",""
"","VS_instruct","html-button-response","7","197406","0.0-7.0","","","","","19981","VS_instruct","0","","","","","","","","","","","","","","","","","","","","","","","","","","","","","","","","","","",""
"","VisSearch","html-button-response","8","199206","0.0-8.0","","","","","1796.9000000953674","VisSearch","","","true","1","true","","","","","","","","","","","","","","","","","","","","","","","","","","","","","","",""
"","VisSearch","html-button-response","9","201139","0.0-9.0","","","","","1930.4000000953674","VisSearch","","","true","1","true","","","","","","","","","","","","","","","","","","","","","","","","","","","","","","",""
"","VisSearch","html-button-response","10","202956","0.0-10.0","","","","","1815.4000000953674","VisSearch","","","true","1","true","","","","","","","","","","","","","","","","","","","","","","","","","","","","","","",""
"","VisSearch","html-button-response","11","204855","0.0-11.0","","","","","1898.3999998569489","VisSearch","","","true","1","true","","","","","","","","","","","","","","","","","","","","","","","","","","","","","","",""
"","VisSearch","html-button-response","12","207358","0.0-12.0","","","","","null","VisSearch","","","false","1","true","","","","","","","","","","","","","","","","","","","","","","","","","","","","","","",""
"","VisSearch","html-button-response","13","209272","0.0-13.0","","","","","1912.7999999523163","VisSearch","","","true","1","true","","","","","","","","","","","","","","","","","","","","","","","","","","","","","","",""
"","VisSearch","html-button-response","14","211389","0.0-14.0","","","","","2115.5999999046326","VisSearch","","","true","1","true","","","","","","","","","","","","","","","","","","","","","","","","","","","","","","",""
"","VisSearch","html-button-response","15","213189","0.0-15.0","","","","","1798","VisSearch","","","true","1","true","","","","","","","","","","","","","","","","","","","","","","","","","","","","","","",""
"","VisSearch","html-button-response","16","214939","0.0-16.0","","","","","1749","VisSearch","","","true","1","true","","","","","","","","","","","","","","","","","","","","","","","","","","","","","","",""
"","VisSearch","html-button-response","17","217055","0.0-17.0","","","","","2114.4000000953674","VisSearch","","","true","1","true","","","","","","","","","","","","","","","","","","","","","","","","","","","","","","",""
"","DSB_instruct","html-button-response","18","228356","0.0-18.0","","","","","11300","DSB_instruct","0","","","","","","","","","","","","","","","","","","","","","","","","","","","","","","","","","","",""
"","DSB 6660","html-keyboard-response","19","232074","0.0-19.0","","","","","","DSB","","","","","","[6,6,6,0]","4","0666","","","","","","","","","","","","","","","","","","","","","","","","","","","",""
"","DSBrecall","html-button-response","20","237788","0.0-20.0","","","","","240216.39999985695","DSBrecall","0666","","true","","","","","","4","4","1","","","","","","","","","","","","","","","","","","","","","","","","",""
"","feedback","html-button-response","21","240206","0.0-21.0","","","","","2417","<div class =""experiment-text""; style=""font-size: 24.16px;"">
            Correct!<br><br>
            Good job!
            </div>","0","","","","","","","","","","","","","","","","","","","","","","","","","","","","","","","","","","",""
"","DSB_instruct","html-button-response","22","247190","0.0-22.0","","","","","6983","DSB_instruct","0","","","","","","","","","","","","","","","","","","","","","","","","","","","","","","","","","","",""
"","DSB 14880057","html-keyboard-response","23","254522","0.0-23.0","","","","","","DSB","","","","","","[1,4,8,8,0,0,5,7]","8","75008841","","","","","","","","","","","","","","","","","","","","","","","","","","","",""
"","DSBrecall","html-button-response","24","265539","0.0-24.0","","","","","267967.09999990463","DSBrecall","75008841","","true","","","","","","8","8","1","","","","","","","","","","","","","","","","","","","","","","","","",""
"","feedback","html-button-response","25","269489","0.0-25.0","","","","","3948","<div class =""experiment-text""; style=""font-size: 24.16px;"">
            Correct!<br><br>
            Good job!
            </div>","0","","","","","","","","","","","","","","","","","","","","","","","","","","","","","","","","","","",""
"","VS_instruct","html-button-response","26","278423","0.0-26.0","","","","","8933","VS_instruct","0","","","","","","","","","","","","","","","","","","","","","","","","","","","","","","","","","","",""
"","VisSearch","html-button-response","27","280639","0.0-27.0","","","","","2214.5999999046326","VisSearch","","","true","2","true","","","","","","","","","","","","","","","","","","","","","","","","","","","","","","",""
"","VisSearch","html-button-response","28","282389","0.0-28.0","","","","","1748.1000001430511","VisSearch","","","true","2","true","","","","","","","","","","","","","","","","","","","","","","","","","","","","","","",""
"","VisSearch","html-button-response","29","283889","0.0-29.0","","","","","1499","VisSearch","","","true","2","true","","","","","","","","","","","","","","","","","","","","","","","","","","","","","","",""
"","VisSearch","html-button-response","30","285289","0.0-30.0","","","","","1398.4000000953674","VisSearch","","","true","2","true","","","","","","","","","","","","","","","","","","","","","","","","","","","","","","",""
"","VisSearch","html-button-response","31","287791","0.0-31.0","","","","","null","VisSearch","","","false","2","true","","","","","","","","","","","","","","","","","","","","","","","","","","","","","","",""
"","VisSearch","html-button-response","32","290293","0.0-32.0","","","","","null","VisSearch","","","false","2","true","","","","","","","","","","","","","","","","","","","","","","","","","","","","","","",""
"","VisSearch","html-button-response","33","291739","0.0-33.0","","","","","1444.1000001430511","VisSearch","","","true","2","true","","","","","","","","","","","","","","","","","","","","","","","","","","","","","","",""
"","VisSearch","html-button-response","34","293288","0.0-34.0","","","","","1548.2000000476837","VisSearch","","","true","2","true","","","","","","","","","","","","","","","","","","","","","","","","","","","","","","",""
"","VisSearch","html-button-response","35","294439","0.0-35.0","","","","","1149.2000000476837","VisSearch","","","true","2","true","","","","","","","","","","","","","","","","","","","","","","","","","","","","","","",""
"","VisSearch","html-button-response","36","295472","0.0-36.0","","","","","1032.2000000476837","VisSearch","","","true","2","true","","","","","","","","","","","","","","","","","","","","","","","","","","","","","","",""
"","DSB_instruct","html-button-response","37","300306","0.0-37.0","","","","","4833","DSB_instruct","0","","","","","","","","","","","","","","","","","","","","","","","","","","","","","","","","","","",""
"","DSB 1653","html-keyboard-response","38","304021","0.0-38.0","","","","","","DSB","","","","","","[1,6,5,3]","4","3561","","","","","","","","","","","","","","","","","","","","","","","","","","","",""
"","DSBrecall","html-button-response","39","313089","0.0-39.0","","","","","315517","DSBrecall","3561","","true","","","","","","4","4","1","","","","","","","","","","","","","","","","","","","","","","","","",""
"","feedback","html-button-response","40","316440","0.0-40.0","","","","","3348","<div class =""experiment-text""; style=""font-size: 24.16px;"">
            Correct!<br><br>
            Good job!
            </div>","0","","","","","","","","","","","","","","","","","","","","","","","","","","","","","","","","","","",""
"","DSB_instruct","html-button-response","41","320538","0.0-41.0","","","","","4097","DSB_instruct","0","","","","","","","","","","","","","","","","","","","","","","","","","","","","","","","","","","",""
"","DSB 93554034","html-keyboard-response","42","327866","0.0-42.0","","","","","","DSB","","","","","","[9,3,5,5,4,0,3,4]","8","43045539","","","","","","","","","","","","","","","","","","","","","","","","","","","",""
"","DSBrecall","html-button-response","43","345490","0.0-43.0","","","","","347917.69999980927","DSBrecall","43045539","","true","","","","","","8","8","1","","","","","","","","","","","","","","","","","","","","","","","","",""
"","feedback","html-button-response","44","348456","0.0-44.0","","","","","2964","<div class =""experiment-text""; style=""font-size: 24.16px;"">
            Correct!<br><br>
            Good job!
            </div>","0","","","","","","","","","","","","","","","","","","","","","","","","","","","","","","","","","","",""
"","expIntructions","html-button-response","45","358707","0.0-45.0-0.0","","","","","10248","expInstruc","0","","","","","","","","","","","","","","","","","","","","","","","","","","","","","","","","","","",""
"","expIntructions","html-button-response","46","366440","0.0-45.0-0.1","","","","","7731","expInstruc","0","","","","","","","","","","","","","","","","","","","","","","","","","","","","","","","","","","",""
"","expIntructions","html-button-response","47","373039","0.0-45.0-0.2","","","","","6598","expInstruc","0","","","","","","","","","","","","","","","","","","","","","","","","","","","","","","","","","","",""
"","expIntructions","html-button-response","48","388757","0.0-45.0-0.3","","","","","15715","expInstruc","0","","","","","","","","","","","","","","","","","","","","","","","","","","","","","","","","","","",""
"","expIntructions","html-button-response","49","403089","0.0-45.0-0.4","","","","","14330","expInstruc","0","","","","","","","","","","","","","","","","","","","","","","","","","","","","","","","","","","",""
"","expIntructions","html-button-response","50","421656","0.0-45.0-0.5","","","","","18566","expInstruc","0","","","","","","","","","","","","","","","","","","","","","","","","","","","","","","","","","","",""
"","expIntructions","html-button-response","51","424357","0.0-45.0-0.6","","","","","2699","expInstruc","0","","","","","","","","","","","","","","","","","","","","","","","","","","","","","","","","","","",""
"","","html-button-response","52","433589","0.0-46.0","","","","","9231","block message","0","","","","","","","","","","","","","","","","","","","","","","","","","","","","","","","","","","",""
"","VS_instruct","html-button-response","53","436590","0.0-47.0","","","","","3000","VS_instruct","0","","","","","","","","","","","","","","","","","","","","","","","","","","","","","","","","","","",""
"","VisSearch","html-button-response","54","438789","0.0-48.0","","","","","2197.2999999523163","VisSearch","","","true","1","true","","","","","","","","","","","","","","","","","","","","","","","","","","","","","","",""
"","VisSearch","html-button-response","55","441273","0.0-49.0","","","","","2481.899999856949","VisSearch","","","true","1","true","","","","","","","","","","","","","","","","","","","","","","","","","","","","","","",""
"","VisSearch","html-button-response","56","443289","0.0-50.0","","","","","2015.5999999046326","VisSearch","","","true","1","true","","","","","","","","","","","","","","","","","","","","","","","","","","","","","","",""
"","VisSearch","html-button-response","57","444740","0.0-51.0","","","","","1449","VisSearch","","","true","1","true","","","","","","","","","","","","","","","","","","","","","","","","","","","","","","",""
"","VisSearch","html-button-response","58","446356","0.0-52.0","","","","","1614.5","VisSearch","","","true","1","true","","","","","","","","","","","","","","","","","","","","","","","","","","","","","","",""
"","VisSearch","html-button-response","59","448223","0.0-53.0","","","","","1865.5999999046326","VisSearch","","","true","1","true","","","","","","","","","","","","","","","","","","","","","","","","","","","","","","",""
"","VisSearch","html-button-response","60","449839","0.0-54.0","","","","","1614.6000001430511","VisSearch","","","true","1","true","","","","","","","","","","","","","","","","","","","","","","","","","","","","","","",""
"","VisSearch","html-button-response","61","452021","0.0-55.0","","","","","2181.699999809265","VisSearch","","","true","1","true","","","","","","","","","","","","","","","","","","","","","","","","","","","","","","",""
"","VisSearch","html-button-response","62","453606","0.0-56.0","","","","","1583.5","VisSearch","","","true","1","true","","","","","","","","","","","","","","","","","","","","","","","","","","","","","","",""
"","VisSearch","html-button-response","63","455489","0.0-57.0","","","","","1881.7000000476837","VisSearch","","","true","1","true","","","","","","","","","","","","","","","","","","","","","","","","","","","","","","",""
"","","html-keyboard-response","64","455491","0.0-58.0","","","","","null","","null","","","","","","","","","","","vissearch-summary-calculation","1","1888.539999961853","","","","","","","","","","","","","","","","","","","","","",""
"","DSB_instruct","html-button-response","65","460389","0.0-59.0","","","","","4896","DSB_instruct","0","","","","","","","","","","","","","","","","","","","","","","","","","","","","","","","","","","",""
"","DSB 93624093","html-keyboard-response","66","467718","0.0-60.0","","","","","","DSB","","","","","","[9,3,6,2,4,0,9,3]","8","39042639","","","","","","","","","","","","","","","","","","","","","","","","","","","",""
"","DSBrecall","html-button-response","67","484472","0.0-61.0","","","","","486898.59999990463","DSBrecall","39042369","","false","","","","","","8","6","0.75","","","","","","","","","","","","","","","","","","","","","","","","",""
"","","dsb-summary-calculation","68","484473","0.0-62.0","","","","","null","","null","","","","","","","","","","","","","","0","0","0.75","486898.59999990463","","","","","","","","","","","","","","","","","",""
"","image_instruct","html-button-response","69","492824","0.0-63.0","","","","","8349","image_instruct","0","","","","","","","","","","","","","","","","","","","","","","","","","","","","","","","","","","",""
"","img9","html-keyboard-response","70","502827","0.0-64.0","","","","","null","img9","null","","","","","","","","","","","","","","","","","","3","1","","","","","","","","","","","","","","","",""
"","DSB_instruct","html-button-response","71","512606","0.0-65.0","","","","","9777","DSB_instruct","0","","","","","","","","","","","","","","","","","","","","","","","","","","","","","","","","","","",""
"","DSB 24302308","html-keyboard-response","72","519937","0.0-66.0","","","","","","DSB","","","","","","[2,4,3,0,2,3,0,8]","8","80320342","","","","","","","","","","","","","","","","","","","","","","","","","","","",""
"","DSBrecall","html-button-response","73","541223","0.0-67.0","","","","","543649.2999999523","DSBrecall","80320432","","false","","","","","","8","6","0.75","","","","","","","","","","","","","","","","","","","","","","","","",""
"","","dsb-summary-calculation","74","541225","0.0-68.0","","","","","null","","null","","","","","","","","","","","","","","","","","","","","0","0","0.75","543649.2999999523","","","","","","","","","","","",""
"","consolidated-trial-data","consolidated-trial-data","75","541227","0.0-69.0","","","","","null","consolidated-trial-data","null","","","","","","","","","","","","","","0","0","0.75","","3","1","0","0","0.75","","0","0","39","1","1888.539999961853","1","9","","","","",""
"","","html-button-response","76","543957","0.0-70.0","","","","","2729","block message","0","","","","","","","","","","","","","","","","","","","","","","","","","","","","","","","","","","",""
"","VS_instruct","html-button-response","77","545773","0.0-71.0","","","","","1815","VS_instruct","0","","","","","","","","","","","","","","","","","","","","","","","","","","","","","","","","","","",""
"","VisSearch","html-button-response","78","547340","0.0-72.0","","","","","1565","VisSearch","","","true","1","true","","","","","","","","","","","","","","","","","","","","","","","","","","","","","","",""
"","VisSearch","html-button-response","79","549189","0.0-73.0","","","","","1848.1000001430511","VisSearch","","","true","1","true","","","","","","","","","","","","","","","","","","","","","","","","","","","","","","",""
"","VisSearch","html-button-response","80","550815","0.0-74.0","","","","","1624.9000000953674","VisSearch","","","true","1","true","","","","","","","","","","","","","","","","","","","","","","","","","","","","","","",""
"","VisSearch","html-button-response","81","552339","0.0-75.0","","","","","1523.1999998092651","VisSearch","","","true","1","true","","","","","","","","","","","","","","","","","","","","","","","","","","","","","","",""
"","VisSearch","html-button-response","82","553906","0.0-76.0","","","","","1565.5999999046326","VisSearch","","","true","1","true","","","","","","","","","","","","","","","","","","","","","","","","","","","","","","",""
"","VisSearch","html-button-response","83","555640","0.0-77.0","","","","","1732.3999998569489","VisSearch","","","true","1","true","","","","","","","","","","","","","","","","","","","","","","","","","","","","","","",""
"","VisSearch","html-button-response","84","557373","0.0-78.0","","","","","1732","VisSearch","","","true","1","true","","","","","","","","","","","","","","","","","","","","","","","","","","","","","","",""
"","VisSearch","html-button-response","85","558272","0.0-79.0","","","","","897.6000001430511","VisSearch","","","true","1","true","","","","","","","","","","","","","","","","","","","","","","","","","","","","","","",""
"","VisSearch","html-button-response","86","559806","0.0-80.0","","","","","1532.7000000476837","VisSearch","","","true","1","true","","","","","","","","","","","","","","","","","","","","","","","","","","","","","","",""
"","VisSearch","html-button-response","87","561106","0.0-81.0","","","","","1298.0999999046326","VisSearch","","","true","1","true","","","","","","","","","","","","","","","","","","","","","","","","","","","","","","",""
"","","html-keyboard-response","88","561107","0.0-82.0","","","","","null","","null","","","","","","","","","","","vissearch-summary-calculation","1","1531.9599999904633","","","","","","","","","","","","","","","","","","","","","",""
"","DSB_instruct","html-button-response","89","565973","0.0-83.0","","","","","4865","DSB_instruct","0","","","","","","","","","","","","","","","","","","","","","","","","","","","","","","","","","","",""
"","DSB 07173883","html-keyboard-response","90","573303","0.0-84.0","","","","","","DSB","","","","","","[0,7,1,7,3,8,8,3]","8","38837170","","","","","","","","","","","","","","","","","","","","","","","","","","","",""
"","DSBrecall","html-button-response","91","593822","0.0-85.0","","","","","596248.6999998093","DSBrecall","38837170","","true","","","","","","8","8","1","","","","","","","","","","","","","","","","","","","","","","","","",""
"","","dsb-summary-calculation","92","593825","0.0-86.0","","","","","null","","null","","","","","","","","","","","","","","1","8","1","596248.6999998093","","","","","","","","","","","","","","","","","",""
"","image_instruct","html-button-response","93","596323","0.0-87.0","","","","","2497","image_instruct","0","","","","","","","","","","","","","","","","","","","","","","","","","","","","","","","","","","",""
"","img8","html-keyboard-response","94","606327","0.0-88.0","","","","","null","img8","null","","","","","","","","","","","","","","","","","","2","2","","","","","","","","","","","","","","","",""
"","DSB_instruct","html-button-response","95","613889","0.0-89.0","","","","","7561","DSB_instruct","0","","","","","","","","","","","","","","","","","","","","","","","","","","","","","","","","","","",""
"","DSB 81813699","html-keyboard-response","96","621218","0.0-90.0","","","","","","DSB","","","","","","[8,1,8,1,3,6,9,9]","8","99631818","","","","","","","","","","","","","","","","","","","","","","","","","","","",""
"","DSBrecall","html-button-response","97","637923","0.0-91.0","","","","","640348.6999998093","DSBrecall","99631818","","true","","","","","","8","8","1","","","","","","","","","","","","","","","","","","","","","","","","",""
"","","dsb-summary-calculation","98","637925","0.0-92.0","","","","","null","","null","","","","","","","","","","","","","","","","","","","","1","8","1","640348.6999998093","","","","","","","","","","","",""
"","consolidated-trial-data","consolidated-trial-data","99","637926","0.0-93.0","","","","","null","consolidated-trial-data","null","","","","","","","","","","","","","","1","8","1","","2","2","1","8","1","","0","1","39","1","1531.9599999904633","1","8","","","","",""
"","","html-button-response","100","642722","0.0-94.0","","","","","4795","block message","0","","","","","","","","","","","","","","","","","","","","","","","","","","","","","","","","","","",""
"","VS_instruct","html-button-response","101","644473","0.0-95.0","","","","","1750","VS_instruct","0","","","","","","","","","","","","","","","","","","","","","","","","","","","","","","","","","","",""
"","VisSearch","html-button-response","102","645740","0.0-96.0","","","","","1265.0999999046326","VisSearch","","","true","1","true","","","","","","","","","","","","","","","","","","","","","","","","","","","","","","",""
"","VisSearch","html-button-response","103","647539","0.0-97.0","","","","","1798.4000000953674","VisSearch","","","true","1","true","","","","","","","","","","","","","","","","","","","","","","","","","","","","","","",""
"","VisSearch","html-button-response","104","649073","0.0-98.0","","","","","1532","VisSearch","","","true","1","true","","","","","","","","","","","","","","","","","","","","","","","","","","","","","","",""
"","VisSearch","html-button-response","105","650505","0.0-99.0","","","","","1430.5999999046326","VisSearch","","","true","1","true","","","","","","","","","","","","","","","","","","","","","","","","","","","","","","",""
"","VisSearch","html-button-response","106","651723","0.0-100.0","","","","","1217.3999998569489","VisSearch","","","true","1","true","","","","","","","","","","","","","","","","","","","","","","","","","","","","","","",""
"","VisSearch","html-button-response","107","653074","0.0-101.0","","","","","1349.7999999523163","VisSearch","","","true","1","true","","","","","","","","","","","","","","","","","","","","","","","","","","","","","","",""
"","VisSearch","html-button-response","108","654473","0.0-102.0","","","","","1398.1000001430511","VisSearch","","","true","1","true","","","","","","","","","","","","","","","","","","","","","","","","","","","","","","",""
"","VisSearch","html-button-response","109","655906","0.0-103.0","","","","","1431.9000000953674","VisSearch","","","true","1","true","","","","","","","","","","","","","","","","","","","","","","","","","","","","","","",""
"","VisSearch","html-button-response","110","657122","0.0-104.0","","","","","1214.5","VisSearch","","","true","1","true","","","","","","","","","","","","","","","","","","","","","","","","","","","","","","",""
"","VisSearch","html-button-response","111","658505","0.0-105.0","","","","","1381.0999999046326","VisSearch","","","true","1","true","","","","","","","","","","","","","","","","","","","","","","","","","","","","","","",""
"","","html-keyboard-response","112","658505","0.0-106.0","","","","","null","","null","","","","","","","","","","","vissearch-summary-calculation","1","1401.8899999856949","","","","","","","","","","","","","","","","","","","","","",""
"","DSB_instruct","html-button-response","113","665889","0.0-107.0","","","","","7383","DSB_instruct","0","","","","","","","","","","","","","","","","","","","","","","","","","","","","","","","","","","",""
"","DSB 25174364","html-keyboard-response","114","673219","0.0-108.0","","","","","","DSB","","","","","","[2,5,1,7,4,3,6,4]","8","46347152","","","","","","","","","","","","","","","","","","","","","","","","","","","",""
"","DSBrecall","html-button-response","115","689273","0.0-109.0","","","","","691699","DSBrecall","46347152","","true","","","","","","8","8","1","","","","","","","","","","","","","","","","","","","","","","","","",""
"","","dsb-summary-calculation","116","689275","0.0-110.0","","","","","null","","null","","","","","","","","","","","","","","1","8","1","691699","","","","","","","","","","","","","","","","","",""
"","image_instruct","html-button-response","117","693690","0.0-111.0","","","","","4414","image_instruct","0","","","","","","","","","","","","","","","","","","","","","","","","","","","","","","","","","","",""
"","img10","html-keyboard-response","118","703693","0.0-112.0","","","","","null","img10","null","","","","","","","","","","","","","","","","","","null","null","","","","","","","","","","","","","","","",""
"","DSB_instruct","html-button-response","119","710005","0.0-113.0","","","","","6311","DSB_instruct","0","","","","","","","","","","","","","","","","","","","","","","","","","","","","","","","","","","",""
"","DSB 36107794","html-keyboard-response","120","717333","0.0-114.0","","","","","","DSB","","","","","","[3,6,1,0,7,7,9,4]","8","49770163","","","","","","","","","","","","","","","","","","","","","","","","","","","",""
"","DSBrecall","html-button-response","121","747490","0.0-115.0","","","","","749915.0999999046","DSBrecall","49771763","","false","","","","","","8","6","0.75","","","","","","","","","","","","","","","","","","","","","","","","",""
"","","dsb-summary-calculation","122","747492","0.0-116.0","","","","","null","","null","","","","","","","","","","","","","","","","","","","","0","0","0.75","749915.0999999046","","","","","","","","","","","",""
"","consolidated-trial-data","consolidated-trial-data","123","747493","0.0-117.0","","","","","null","consolidated-trial-data","null","","","","","","","","","","","","","","1","8","1","","null","null","0","0","0.75","","0","2","39","1","1401.8899999856949","1","10","","","","",""
"","","html-button-response","124","754190","0.0-118.0","","","","","6696","block message","0","","","","","","","","","","","","","","","","","","","","","","","","","","","","","","","","","","",""
"","VS_instruct","html-button-response","125","756174","0.0-119.0","","","","","1982","VS_instruct","0","","","","","","","","","","","","","","","","","","","","","","","","","","","","","","","","","","",""
"","VisSearch","html-button-response","126","757840","0.0-120.0","","","","","1664.3999998569489","VisSearch","","","true","1","true","","","","","","","","","","","","","","","","","","","","","","","","","","","","","","",""
"","VisSearch","html-button-response","127","759223","0.0-121.0","","","","","1382.2000000476837","VisSearch","","","true","1","true","","","","","","","","","","","","","","","","","","","","","","","","","","","","","","",""
"","VisSearch","html-button-response","128","760623","0.0-122.0","","","","","1398.5","VisSearch","","","true","1","true","","","","","","","","","","","","","","","","","","","","","","","","","","","","","","",""
"","VisSearch","html-button-response","129","762890","0.0-123.0","","","","","2265.399999856949","VisSearch","","","true","1","true","","","","","","","","","","","","","","","","","","","","","","","","","","","","","","",""
"","VisSearch","html-button-response","130","764489","0.0-124.0","","","","","1597.5999999046326","VisSearch","","","true","1","true","","","","","","","","","","","","","","","","","","","","","","","","","","","","","","",""
"","VisSearch","html-button-response","131","765589","0.0-125.0","","","","","1098.8999998569489","VisSearch","","","true","1","true","","","","","","","","","","","","","","","","","","","","","","","","","","","","","","",""
"","VisSearch","html-button-response","132","766922","0.0-126.0","","","","","1331.8999998569489","VisSearch","","","true","1","true","","","","","","","","","","","","","","","","","","","","","","","","","","","","","","",""
"","VisSearch","html-button-response","133","768240","0.0-127.0","","","","","1316","VisSearch","","","true","1","true","","","","","","","","","","","","","","","","","","","","","","","","","","","","","","",""
"","VisSearch","html-button-response","134","770173","0.0-128.0","","","","","1932.3999998569489","VisSearch","","","true","1","true","","","","","","","","","","","","","","","","","","","","","","","","","","","","","","",""
"","VisSearch","html-button-response","135","772306","0.0-129.0","","","","","2131.2999999523163","VisSearch","","","true","1","true","","","","","","","","","","","","","","","","","","","","","","","","","","","","","","",""
"","","html-keyboard-response","136","772307","0.0-130.0","","","","","null","","null","","","","","","","","","","","vissearch-summary-calculation","1","1611.8599999189378","","","","","","","","","","","","","","","","","","","","","",""
"","DSB_instruct","html-button-response","137","774524","0.0-131.0","","","","","2215","DSB_instruct","0","","","","","","","","","","","","","","","","","","","","","","","","","","","","","","","","","","",""
"","DSB 09920924","html-keyboard-response","138","781851","0.0-132.0","","","","","","DSB","","","","","","[0,9,9,2,0,9,2,4]","8","42902990","","","","","","","","","","","","","","","","","","","","","","","","","","","",""
"","DSBrecall","html-button-response","139","794589","0.0-133.0","","","","","797014.2999999523","DSBrecall","42092990","","false","","","","","","8","6","0.75","","","","","","","","","","","","","","","","","","","","","","","","",""
"","","dsb-summary-calculation","140","794592","0.0-134.0","","","","","null","","null","","","","","","","","","","","","","","0","0","0.75","797014.2999999523","","","","","","","","","","","","","","","","","",""
"","image_instruct","html-button-response","141","800440","0.0-135.0","","","","","5847","image_instruct","0","","","","","","","","","","","","","","","","","","","","","","","","","","","","","","","","","","",""
"","img4","html-keyboard-response","142","810444","0.0-136.0","","","","","null","img4","null","","","","","","","","","","","","","","","","","","1","2","","","","","","","","","","","","","","","",""
"","DSB_instruct","html-button-response","143","817641","0.0-137.0","","","","","7196","DSB_instruct","0","","","","","","","","","","","","","","","","","","","","","","","","","","","","","","","","","","",""
"","DSB 56530368","html-keyboard-response","144","824972","0.0-138.0","","","","","","DSB","","","","","","[5,6,5,3,0,3,6,8]","8","86303565","","","","","","","","","","","","","","","","","","","","","","","","","","","",""
"","DSBrecall","html-button-response","145","848373","0.0-139.0","","","","","850797.399999857","DSBrecall","86303995","","false","","","","","","8","6","0.75","","","","","","","","","","","","","","","","","","","","","","","","",""
"","","dsb-summary-calculation","146","848375","0.0-140.0","","","","","null","","null","","","","","","","","","","","","","","","","","","","","0","0","0.75","850797.399999857","","","","","","","","","","","",""
"","consolidated-trial-data","consolidated-trial-data","147","848376","0.0-141.0","","","","","null","consolidated-trial-data","null","","","","","","","","","","","","","","0","0","0.75","","1","2","0","0","0.75","","0","3","39","1","1611.8599999189378","1","4","","","","",""
"","","html-button-response","148","856925","0.0-142.0","","","","","8547","block message","0","","","","","","","","","","","","","","","","","","","","","","","","","","","","","","","","","","",""
"","VS_instruct","html-button-response","149","858491","0.0-143.0","","","","","1564","VS_instruct","0","","","","","","","","","","","","","","","","","","","","","","","","","","","","","","","","","","",""
"","VisSearch","html-button-response","150","860273","0.0-144.0","","","","","1780.5","VisSearch","","","true","1","true","","","","","","","","","","","","","","","","","","","","","","","","","","","","","","",""
"","VisSearch","html-button-response","151","861523","0.0-145.0","","","","","1248.8999998569489","VisSearch","","","true","1","true","","","","","","","","","","","","","","","","","","","","","","","","","","","","","","",""
"","VisSearch","html-button-response","152","863440","0.0-146.0","","","","","1915.5","VisSearch","","","true","1","true","","","","","","","","","","","","","","","","","","","","","","","","","","","","","","",""
"","VisSearch","html-button-response","153","864640","0.0-147.0","","","","","1198.7999999523163","VisSearch","","","true","1","true","","","","","","","","","","","","","","","","","","","","","","","","","","","","","","",""
"","VisSearch","html-button-response","154","866290","0.0-148.0","","","","","1649","VisSearch","","","true","1","true","","","","","","","","","","","","","","","","","","","","","","","","","","","","","","",""
"","VisSearch","html-button-response","155","867389","0.0-149.0","","","","","1098.2000000476837","VisSearch","","","true","1","true","","","","","","","","","","","","","","","","","","","","","","","","","","","","","","",""
"","VisSearch","html-button-response","156","869656","0.0-150.0","","","","","2265.2999999523163","VisSearch","","","true","1","true","","","","","","","","","","","","","","","","","","","","","","","","","","","","","","",""
"","VisSearch","html-button-response","157","871791","0.0-151.0","","","","","2133.0999999046326","VisSearch","","","true","1","true","","","","","","","","","","","","","","","","","","","","","","","","","","","","","","",""
"","VisSearch","html-button-response","158","873224","0.0-152.0","","","","","1431.6999998092651","VisSearch","","","true","1","true","","","","","","","","","","","","","","","","","","","","","","","","","","","","","","",""
"","VisSearch","html-button-response","159","874690","0.0-153.0","","","","","1464.9000000953674","VisSearch","","","true","1","true","","","","","","","","","","","","","","","","","","","","","","","","","","","","","","",""
"","","html-keyboard-response","160","874691","0.0-154.0","","","","","null","","null","","","","","","","","","","","vissearch-summary-calculation","1","1618.589999961853","","","","","","","","","","","","","","","","","","","","","",""
"","DSB_instruct","html-button-response","161","882491","0.0-155.0","","","","","7798","DSB_instruct","0","","","","","","","","","","","","","","","","","","","","","","","","","","","","","","","","","","",""
"","DSB 41781850","html-keyboard-response","162","889820","0.0-156.0","","","","","","DSB","","","","","","[4,1,7,8,1,8,5,0]","8","05818714","","","","","","","","","","","","","","","","","","","","","","","","","","","",""
"","DSBrecall","html-button-response","163","912108","0.0-157.0","","","","","914532.0999999046","DSBrecall","05818714","","true","","","","","","8","8","1","","","","","","","","","","","","","","","","","","","","","","","","",""
"","","dsb-summary-calculation","164","912110","0.0-158.0","","","","","null","","null","","","","","","","","","","","","","","1","8","1","914532.0999999046","","","","","","","","","","","","","","","","","",""
"","image_instruct","html-button-response","165","924823","0.0-159.0","","","","","12711","image_instruct","0","","","","","","","","","","","","","","","","","","","","","","","","","","","","","","","","","","",""
"","img3","html-keyboard-response","166","934827","0.0-160.0","","","","","null","img3","null","","","","","","","","","","","","","","","","","","3","2","","","","","","","","","","","","","","","",""
"","DSB_instruct","html-button-response","167","945373","0.0-161.0","","","","","10545","DSB_instruct","0","","","","","","","","","","","","","","","","","","","","","","","","","","","","","","","","","","",""
"","DSB 89032024","html-keyboard-response","168","952701","0.0-162.0","","","","","","DSB","","","","","","[8,9,0,3,2,0,2,4]","8","42023098","","","","","","","","","","","","","","","","","","","","","","","","","","","",""
"","DSBrecall","html-button-response","169","965773","0.0-163.0","","","","","968197.5","DSBrecall","42023798","","false","","","","","","8","7","0.875","","","","","","","","","","","","","","","","","","","","","","","","",""
"","","dsb-summary-calculation","170","965776","0.0-164.0","","","","","null","","null","","","","","","","","","","","","","","","","","","","","0","0","0.875","968197.5","","","","","","","","","","","",""
"","consolidated-trial-data","consolidated-trial-data","171","965777","0.0-165.0","","","","","null","consolidated-trial-data","null","","","","","","","","","","","","","","1","8","1","","3","2","0","0","0.875","","0","4","39","1","1618.589999961853","1","3","","","","",""
"","","html-button-response","172","976524","0.0-166.0","","","","","10747","block message","0","","","","","","","","","","","","","","","","","","","","","","","","","","","","","","","","","","",""
"","VS_instruct","html-button-response","173","979974","0.0-167.0","","","","","3448","VS_instruct","0","","","","","","","","","","","","","","","","","","","","","","","","","","","","","","","","","","",""
"","VisSearch","html-button-response","174","981523","0.0-168.0","","","","","1547.6999998092651","VisSearch","","","true","1","true","","","","","","","","","","","","","","","","","","","","","","","","","","","","","","",""
"","VisSearch","html-button-response","175","983123","0.0-169.0","","","","","1598.2000000476837","VisSearch","","","true","1","true","","","","","","","","","","","","","","","","","","","","","","","","","","","","","","",""
"","VisSearch","html-button-response","176","984823","0.0-170.0","","","","","1699","VisSearch","","","true","1","true","","","","","","","","","","","","","","","","","","","","","","","","","","","","","","",""
"","VisSearch","html-button-response","177","986156","0.0-171.0","","","","","1331.9000000953674","VisSearch","","","true","1","true","","","","","","","","","","","","","","","","","","","","","","","","","","","","","","",""
"","VisSearch","html-button-response","178","988074","0.0-172.0","","","","","1915.7999999523163","VisSearch","","","true","1","true","","","","","","","","","","","","","","","","","","","","","","","","","","","","","","",""
"","VisSearch","html-button-response","179","989707","0.0-173.0","","","","","1631.5","VisSearch","","","true","1","true","","","","","","","","","","","","","","","","","","","","","","","","","","","","","","",""
"","VisSearch","html-button-response","180","991157","0.0-174.0","","","","","1448.5","VisSearch","","","true","1","true","","","","","","","","","","","","","","","","","","","","","","","","","","","","","","",""
"","VisSearch","html-button-response","181","992658","0.0-175.0","","","","","1499.3999998569489","VisSearch","","","true","1","true","","","","","","","","","","","","","","","","","","","","","","","","","","","","","","",""
"","VisSearch","html-button-response","182","994056","0.0-176.0","","","","","1397.4000000953674","VisSearch","","","true","1","true","","","","","","","","","","","","","","","","","","","","","","","","","","","","","","",""
"","VisSearch","html-button-response","183","996190","0.0-177.0","","","","","2132.2000000476837","VisSearch","","","true","1","true","","","","","","","","","","","","","","","","","","","","","","","","","","","","","","",""
"","","html-keyboard-response","184","996191","0.0-178.0","","","","","null","","null","","","","","","","","","","","vissearch-summary-calculation","1","1620.1599999904633","","","","","","","","","","","","","","","","","","","","","",""
"","DSB_instruct","html-button-response","185","1001774","0.0-179.0","","","","","5582","DSB_instruct","0","","","","","","","","","","","","","","","","","","","","","","","","","","","","","","","","","","",""
"","DSB 19097702","html-keyboard-response","186","1009102","0.0-180.0","","","","","","DSB","","","","","","[1,9,0,9,7,7,0,2]","8","20779091","","","","","","","","","","","","","","","","","","","","","","","","","","","",""
"","DSBrecall","html-button-response","187","1021689","0.0-181.0","","","","","1024112.899999857","DSBrecall","20779091","","true","","","","","","8","8","1","","","","","","","","","","","","","","","","","","","","","","","","",""
"","","dsb-summary-calculation","188","1021691","0.0-182.0","","","","","null","","null","","","","","","","","","","","","","","1","8","1","1024112.899999857","","","","","","","","","","","","","","","","","",""
"","image_instruct","html-button-response","189","1023524","0.0-183.0","","","","","1832","image_instruct","0","","","","","","","","","","","","","","","","","","","","","","","","","","","","","","","","","","",""
"","img5","html-keyboard-response","190","1033527","0.0-184.0","","","","","null","img5","null","","","","","","","","","","","","","","","","","","2","1","","","","","","","","","","","","","","","",""
"","DSB_instruct","html-button-response","191","1038174","0.0-185.0","","","","","4646","DSB_instruct","0","","","","","","","","","","","","","","","","","","","","","","","","","","","","","","","","","","",""
"","DSB 57225210","html-keyboard-response","192","1045504","0.0-186.0","","","","","","DSB","","","","","","[5,7,2,2,5,2,1,0]","8","01252275","","","","","","","","","","","","","","","","","","","","","","","","","","","",""
"","DSBrecall","html-button-response","193","1061207","0.0-187.0","","","","","1063630.0999999046","DSBrecall","01252215","","false","","","","","","8","7","0.875","","","","","","","","","","","","","","","","","","","","","","","","",""
"","","dsb-summary-calculation","194","1061209","0.0-188.0","","","","","null","","null","","","","","","","","","","","","","","","","","","","","0","0","0.875","1063630.0999999046","","","","","","","","","","","",""
"","consolidated-trial-data","consolidated-trial-data","195","1061210","0.0-189.0","","","","","null","consolidated-trial-data","null","","","","","","","","","","","","","","1","8","1","","2","1","0","0","0.875","","0","5","39","1","1620.1599999904633","1","5","","","","",""
"","","html-button-response","196","1064390","0.0-190.0","","","","","3178","block message","0","","","","","","","","","","","","","","","","","","","","","","","","","","","","","","","","","","",""
"","VS_instruct","html-button-response","197","1066807","0.0-191.0","","","","","2416","VS_instruct","0","","","","","","","","","","","","","","","","","","","","","","","","","","","","","","","","","","",""
"","VisSearch","html-button-response","198","1068123","0.0-192.0","","","","","1314.2999999523163","VisSearch","","","true","1","true","","","","","","","","","","","","","","","","","","","","","","","","","","","","","","",""
"","VisSearch","html-button-response","199","1069707","0.0-193.0","","","","","1582.3000001907349","VisSearch","","","true","1","true","","","","","","","","","","","","","","","","","","","","","","","","","","","","","","",""
"","VisSearch","html-button-response","200","1071290","0.0-194.0","","","","","1582.2999999523163","VisSearch","","","true","1","true","","","","","","","","","","","","","","","","","","","","","","","","","","","","","","",""
"","VisSearch","html-button-response","201","1072724","0.0-195.0","","","","","1432.2000000476837","VisSearch","","","true","1","true","","","","","","","","","","","","","","","","","","","","","","","","","","","","","","",""
"","VisSearch","html-button-response","202","1074506","0.0-196.0","","","","","1781.2000000476837","VisSearch","","","true","1","true","","","","","","","","","","","","","","","","","","","","","","","","","","","","","","",""
"","VisSearch","html-button-response","203","1076156","0.0-197.0","","","","","1648.7999999523163","VisSearch","","","true","1","true","","","","","","","","","","","","","","","","","","","","","","","","","","","","","","",""
"","VisSearch","html-button-response","204","1077490","0.0-198.0","","","","","1332.6000001430511","VisSearch","","","true","1","true","","","","","","","","","","","","","","","","","","","","","","","","","","","","","","",""
"","VisSearch","html-button-response","205","1079073","0.0-199.0","","","","","1580.7000000476837","VisSearch","","","true","1","true","","","","","","","","","","","","","","","","","","","","","","","","","","","","","","",""
"","VisSearch","html-button-response","206","1080524","0.0-200.0","","","","","1449.9000000953674","VisSearch","","","true","1","true","","","","","","","","","","","","","","","","","","","","","","","","","","","","","","",""
"","VisSearch","html-button-response","207","1082557","0.0-201.0","","","","","2032.1000001430511","VisSearch","","","true","1","true","","","","","","","","","","","","","","","","","","","","","","","","","","","","","","",""
"","","html-keyboard-response","208","1082559","0.0-202.0","","","","","null","","null","","","","","","","","","","","vissearch-summary-calculation","1","1573.6400000572205","","","","","","","","","","","","","","","","","","","","","",""
"","DSB_instruct","html-button-response","209","1087208","0.0-203.0","","","","","4648","DSB_instruct","0","","","","","","","","","","","","","","","","","","","","","","","","","","","","","","","","","","",""
"","DSB 17437196","html-keyboard-response","210","1094539","0.0-204.0","","","","","","DSB","","","","","","[1,7,4,3,7,1,9,6]","8","69173471","","","","","","","","","","","","","","","","","","","","","","","","","","","",""
"","DSBrecall","html-button-response","211","1111108","0.0-205.0","","","","","1113530.399999857","DSBrecall","69173471","","true","","","","","","8","8","1","","","","","","","","","","","","","","","","","","","","","","","","",""
"","","dsb-summary-calculation","212","1111111","0.0-206.0","","","","","null","","null","","","","","","","","","","","","","","1","8","1","1113530.399999857","","","","","","","","","","","","","","","","","",""
"","image_instruct","html-button-response","213","1112691","0.0-207.0","","","","","1579","image_instruct","0","","","","","","","","","","","","","","","","","","","","","","","","","","","","","","","","","","",""
"","img2","html-keyboard-response","214","1122695","0.0-208.0","","","","","null","img2","null","","","","","","","","","","","","","","","","","","2","2","","","","","","","","","","","","","","","",""
"","DSB_instruct","html-button-response","215","1132057","0.0-209.0","","","","","9361","DSB_instruct","0","","","","","","","","","","","","","","","","","","","","","","","","","","","","","","","","","","",""
"","DSB 81324196","html-keyboard-response","216","1139385","0.0-210.0","","","","","","DSB","","","","","","[8,1,3,2,4,1,9,6]","8","69142318","","","","","","","","","","","","","","","","","","","","","","","","","","","",""
"","DSBrecall","html-button-response","217","1164407","0.0-211.0","","","","","1166829.7999999523","DSBrecall","69142318","","true","","","","","","8","8","1","","","","","","","","","","","","","","","","","","","","","","","","",""
"","","dsb-summary-calculation","218","1164409","0.0-212.0","","","","","null","","null","","","","","","","","","","","","","","","","","","","","1","8","1","1166829.7999999523","","","","","","","","","","","",""
"","consolidated-trial-data","consolidated-trial-data","219","1164410","0.0-213.0","","","","","null","consolidated-trial-data","null","","","","","","","","","","","","","","1","8","1","","2","2","1","8","1","","0","6","39","1","1573.6400000572205","1","2","","","","",""
"","","html-button-response","220","1167407","0.0-214.0","","","","","2997","block message","0","","","","","","","","","","","","","","","","","","","","","","","","","","","","","","","","","","",""
"","VS_instruct","html-button-response","221","1168990","0.0-215.0","","","","","1581","VS_instruct","0","","","","","","","","","","","","","","","","","","","","","","","","","","","","","","","","","","",""
"","VisSearch","html-button-response","222","1171074","0.0-216.0","","","","","2081.100000143051","VisSearch","","","true","1","true","","","","","","","","","","","","","","","","","","","","","","","","","","","","","","",""
"","VisSearch","html-button-response","223","1172257","0.0-217.0","","","","","1182","VisSearch","","","true","1","true","","","","","","","","","","","","","","","","","","","","","","","","","","","","","","",""
"","VisSearch","html-button-response","224","1174089","0.0-218.0","","","","","1830.7999999523163","VisSearch","","","true","1","true","","","","","","","","","","","","","","","","","","","","","","","","","","","","","","",""
"","VisSearch","html-button-response","225","1175606","0.0-219.0","","","","","1515.4000000953674","VisSearch","","","true","1","true","","","","","","","","","","","","","","","","","","","","","","","","","","","","","","",""
"","VisSearch","html-button-response","226","1177757","0.0-220.0","","","","","2149.5","VisSearch","","","true","1","true","","","","","","","","","","","","","","","","","","","","","","","","","","","","","","",""
"","VisSearch","html-button-response","227","1179173","0.0-221.0","","","","","1414","VisSearch","","","true","1","true","","","","","","","","","","","","","","","","","","","","","","","","","","","","","","",""
"","VisSearch","html-button-response","228","1181173","0.0-222.0","","","","","1999","VisSearch","","","true","1","true","","","","","","","","","","","","","","","","","","","","","","","","","","","","","","",""
"","VisSearch","html-button-response","229","1182974","0.0-223.0","","","","","1799.2000000476837","VisSearch","","","true","1","true","","","","","","","","","","","","","","","","","","","","","","","","","","","","","","",""
"","VisSearch","html-button-response","230","1184724","0.0-224.0","","","","","1748.7000000476837","VisSearch","","","true","1","true","","","","","","","","","","","","","","","","","","","","","","","","","","","","","","",""
"","VisSearch","html-button-response","231","1186690","0.0-225.0","","","","","1965.0999999046326","VisSearch","","","true","1","true","","","","","","","","","","","","","","","","","","","","","","","","","","","","","","",""
"","","html-keyboard-response","232","1186691","0.0-226.0","","","","","null","","null","","","","","","","","","","","vissearch-summary-calculation","1","1768.4800000190735","","","","","","","","","","","","","","","","","","","","","",""
"","DSB_instruct","html-button-response","233","1193340","0.0-227.0","","","","","6647","DSB_instruct","0","","","","","","","","","","","","","","","","","","","","","","","","","","","","","","","","","","",""
"","DSB 21523514","html-keyboard-response","234","1200669","0.0-228.0","","","","","","DSB","","","","","","[2,1,5,2,3,5,1,4]","8","41532512","","","","","","","","","","","","","","","","","","","","","","","","","","","",""
"","DSBrecall","html-button-response","235","1232041","0.0-229.0","","","","","1234462.6999998093","DSBrecall","41532312","","false","","","","","","8","7","0.875","","","","","","","","","","","","","","","","","","","","","","","","",""
"","","dsb-summary-calculation","236","1232043","0.0-230.0","","","","","null","","null","","","","","","","","","","","","","","0","0","0.875","1234462.6999998093","","","","","","","","","","","","","","","","","",""
"","image_instruct","html-button-response","237","1235174","0.0-231.0","","","","","3130","image_instruct","0","","","","","","","","","","","","","","","","","","","","","","","","","","","","","","","","","","",""
"","img6","html-keyboard-response","238","1245178","0.0-232.0","","","","","null","img6","null","","","","","","","","","","","","","","","","","","3","2","","","","","","","","","","","","","","","",""
"","DSB_instruct","html-button-response","239","1252458","0.0-233.0","","","","","7279","DSB_instruct","0","","","","","","","","","","","","","","","","","","","","","","","","","","","","","","","","","","",""
"","DSB 88967507","html-keyboard-response","240","1259788","0.0-234.0","","","","","","DSB","","","","","","[8,8,9,6,7,5,0,7]","8","70576988","","","","","","","","","","","","","","","","","","","","","","","","","","","",""
"","DSBrecall","html-button-response","241","1272872","0.0-235.0","","","","","1275294.2999999523","DSBrecall","70576988","","true","","","","","","8","8","1","","","","","","","","","","","","","","","","","","","","","","","","",""
"","","dsb-summary-calculation","242","1272873","0.0-236.0","","","","","null","","null","","","","","","","","","","","","","","","","","","","","1","8","1","1275294.2999999523","","","","","","","","","","","",""
"","consolidated-trial-data","consolidated-trial-data","243","1272874","0.0-237.0","","","","","null","consolidated-trial-data","null","","","","","","","","","","","","","","0","0","0.875","","3","2","1","8","1","","0","7","39","1","1768.4800000190735","1","6","","","","",""
"","","html-button-response","244","1280658","0.0-238.0","","","","","7783","block message","0","","","","","","","","","","","","","","","","","","","","","","","","","","","","","","","","","","",""
"","VS_instruct","html-button-response","245","1282890","0.0-239.0","","","","","2231","VS_instruct","0","","","","","","","","","","","","","","","","","","","","","","","","","","","","","","","","","","",""
"","VisSearch","html-button-response","246","1284475","0.0-240.0","","","","","1584.1999998092651","VisSearch","","","true","1","true","","","","","","","","","","","","","","","","","","","","","","","","","","","","","","",""
"","VisSearch","html-button-response","247","1286257","0.0-241.0","","","","","1780.9000000953674","VisSearch","","","true","1","true","","","","","","","","","","","","","","","","","","","","","","","","","","","","","","",""
"","VisSearch","html-button-response","248","1288074","0.0-242.0","","","","","1815.5999999046326","VisSearch","","","true","1","true","","","","","","","","","","","","","","","","","","","","","","","","","","","","","","",""
"","VisSearch","html-button-response","249","1289724","0.0-243.0","","","","","1648.4000000953674","VisSearch","","","true","1","true","","","","","","","","","","","","","","","","","","","","","","","","","","","","","","",""
"","VisSearch","html-button-response","250","1292024","0.0-244.0","","","","","2298.7999999523163","VisSearch","","","true","1","true","","","","","","","","","","","","","","","","","","","","","","","","","","","","","","",""
"","VisSearch","html-button-response","251","1293674","0.0-245.0","","","","","1648.5","VisSearch","","","true","1","true","","","","","","","","","","","","","","","","","","","","","","","","","","","","","","",""
"","VisSearch","html-button-response","252","1295673","0.0-246.0","","","","","1997.7000000476837","VisSearch","","","true","1","true","","","","","","","","","","","","","","","","","","","","","","","","","","","","","","",""
"","VisSearch","html-button-response","253","1297806","0.0-247.0","","","","","2132.4000000953674","VisSearch","","","true","1","true","","","","","","","","","","","","","","","","","","","","","","","","","","","","","","",""
"","VisSearch","html-button-response","254","1299974","0.0-248.0","","","","","2165.7999999523163","VisSearch","","","true","1","true","","","","","","","","","","","","","","","","","","","","","","","","","","","","","","",""
"","VisSearch","html-button-response","255","1301690","0.0-249.0","","","","","1715.3999998569489","VisSearch","","","true","1","true","","","","","","","","","","","","","","","","","","","","","","","","","","","","","","",""
"","","html-keyboard-response","256","1301692","0.0-250.0","","","","","null","","null","","","","","","","","","","","vissearch-summary-calculation","1","1878.7699999809265","","","","","","","","","","","","","","","","","","","","","",""
"","DSB_instruct","html-button-response","257","1308224","0.0-251.0","","","","","6531","DSB_instruct","0","","","","","","","","","","","","","","","","","","","","","","","","","","","","","","","","","","",""
"","DSB 92705711","html-keyboard-response","258","1315554","0.0-252.0","","","","","","DSB","","","","","","[9,2,7,0,5,7,1,1]","8","11750729","","","","","","","","","","","","","","","","","","","","","","","","","","","",""
"","DSBrecall","html-button-response","259","1334574","0.0-253.0","","","","","1336995.5","DSBrecall","11750729","","true","","","","","","8","8","1","","","","","","","","","","","","","","","","","","","","","","","","",""
"","","dsb-summary-calculation","260","1334576","0.0-254.0","","","","","null","","null","","","","","","","","","","","","","","1","8","1","1336995.5","","","","","","","","","","","","","","","","","",""
"","image_instruct","html-button-response","261","1336007","0.0-255.0","","","","","1430","image_instruct","0","","","","","","","","","","","","","","","","","","","","","","","","","","","","","","","","","","",""
"","img1","html-keyboard-response","262","1346011","0.0-256.0","","","","","null","img1","null","","","","","","","","","","","","","","","","","","1","1","","","","","","","","","","","","","","","",""
"","DSB_instruct","html-button-response","263","1349324","0.0-257.0","","","","","3311","DSB_instruct","0","","","","","","","","","","","","","","","","","","","","","","","","","","","","","","","","","","",""
"","DSB 27180532","html-keyboard-response","264","1356654","0.0-258.0","","","","","","DSB","","","","","","[2,7,1,8,0,5,3,2]","8","23508172","","","","","","","","","","","","","","","","","","","","","","","","","","","",""
"","DSBrecall","html-button-response","265","1382107","0.0-259.0","","","","","1384528.0999999046","DSBrecall","23508122","","false","","","","","","8","7","0.875","","","","","","","","","","","","","","","","","","","","","","","","",""
"","","dsb-summary-calculation","266","1382109","0.0-260.0","","","","","null","","null","","","","","","","","","","","","","","","","","","","","0","0","0.875","1384528.0999999046","","","","","","","","","","","",""
"","consolidated-trial-data","consolidated-trial-data","267","1382110","0.0-261.0","","","","","null","consolidated-trial-data","null","","","","","","","","","","","","","","1","8","1","","1","1","0","0","0.875","","0","8","39","1","1878.7699999809265","1","1","","","","",""
"","","html-button-response","268","1385574","0.0-262.0","","","","","3463","block message","0","","","","","","","","","","","","","","","","","","","","","","","","","","","","","","","","","","",""
"","VS_instruct","html-button-response","269","1386708","0.0-263.0","","","","","1132","VS_instruct","0","","","","","","","","","","","","","","","","","","","","","","","","","","","","","","","","","","",""
"","VisSearch","html-button-response","270","1388790","0.0-264.0","","","","","2081.2999999523163","VisSearch","","","true","1","true","","","","","","","","","","","","","","","","","","","","","","","","","","","","","","",""
"","VisSearch","html-button-response","271","1390457","0.0-265.0","","","","","1665.2000000476837","VisSearch","","","true","1","true","","","","","","","","","","","","","","","","","","","","","","","","","","","","","","",""
"","VisSearch","html-button-response","272","1392224","0.0-266.0","","","","","1765.5","VisSearch","","","true","1","true","","","","","","","","","","","","","","","","","","","","","","","","","","","","","","",""
"","VisSearch","html-button-response","273","1394290","0.0-267.0","","","","","2065.2999999523163","VisSearch","","","true","1","true","","","","","","","","","","","","","","","","","","","","","","","","","","","","","","",""
"","VisSearch","html-button-response","274","1396174","0.0-268.0","","","","","1882.1000001430511","VisSearch","","","true","1","true","","","","","","","","","","","","","","","","","","","","","","","","","","","","","","",""
"","VisSearch","html-button-response","275","1398524","0.0-269.0","","","","","2349.100000143051","VisSearch","","","true","1","true","","","","","","","","","","","","","","","","","","","","","","","","","","","","","","",""
"","VisSearch","html-button-response","276","1399858","0.0-270.0","","","","","1331.9000000953674","VisSearch","","","true","1","true","","","","","","","","","","","","","","","","","","","","","","","","","","","","","","",""
"","VisSearch","html-button-response","277","1401474","0.0-271.0","","","","","1615.2000000476837","VisSearch","","","true","1","true","","","","","","","","","","","","","","","","","","","","","","","","","","","","","","",""
"","VisSearch","html-button-response","278","1403190","0.0-272.0","","","","","1714.7999999523163","VisSearch","","","true","1","true","","","","","","","","","","","","","","","","","","","","","","","","","","","","","","",""
"","VisSearch","html-button-response","279","1405007","0.0-273.0","","","","","1815.5","VisSearch","","","true","1","true","","","","","","","","","","","","","","","","","","","","","","","","","","","","","","",""
"","","html-keyboard-response","280","1405009","0.0-274.0","","","","","null","","null","","","","","","","","","","","vissearch-summary-calculation","1","1828.5900000333786","","","","","","","","","","","","","","","","","","","","","",""
"","DSB_instruct","html-button-response","281","1408791","0.0-275.0","","","","","3781","DSB_instruct","0","","","","","","","","","","","","","","","","","","","","","","","","","","","","","","","","","","",""
"","DSB 28081586","html-keyboard-response","282","1416119","0.0-276.0","","","","","","DSB","","","","","","[2,8,0,8,1,5,8,6]","8","68518082","","","","","","","","","","","","","","","","","","","","","","","","","","","",""
"","DSBrecall","html-button-response","283","1439591","0.0-277.0","","","","","1442011.7999999523","DSBrecall","68510782","","false","","","","","","8","6","0.75","","","","","","","","","","","","","","","","","","","","","","","","",""
"","","dsb-summary-calculation","284","1439593","0.0-278.0","","","","","null","","null","","","","","","","","","","","","","","0","0","0.75","1442011.7999999523","","","","","","","","","","","","","","","","","",""
"","image_instruct","html-button-response","285","1441673","0.0-279.0","","","","","2079","image_instruct","0","","","","","","","","","","","","","","","","","","","","","","","","","","","","","","","","","","",""
"","img7","html-keyboard-response","286","1451676","0.0-280.0","","","","","null","img7","null","","","","","","","","","","","","","","","","","","1","2","","","","","","","","","","","","","","","",""
"","DSB_instruct","html-button-response","287","1460025","0.0-281.0","","","","","8347","DSB_instruct","0","","","","","","","","","","","","","","","","","","","","","","","","","","","","","","","","","","",""
"","DSB 60038831","html-keyboard-response","288","1467356","0.0-282.0","","","","","","DSB","","","","","","[6,0,0,3,8,8,3,1]","8","13883006","","","","","","","","","","","","","","","","","","","","","","","","","","","",""
"","DSBrecall","html-button-response","289","1485524","0.0-283.0","","","","","1487944.7999999523","DSBrecall","13883006","","true","","","","","","8","8","1","","","","","","","","","","","","","","","","","","","","","","","","",""
"","","dsb-summary-calculation","290","1485527","0.0-284.0","","","","","null","","null","","","","","","","","","","","","","","","","","","","","1","8","1","1487944.7999999523","","","","","","","","","","","",""
"","consolidated-trial-data","consolidated-trial-data","291","1485528","0.0-285.0","","","","","null","consolidated-trial-data","null","","","","","","","","","","","","","","0","0","0.75","","1","2","1","8","1","","0","9","39","1","1828.5900000333786","1","7","","","","",""
"","","html-button-response","292","1497475","0.0-286.0","","","","","11946","block message","0","","","","","","","","","","","","","","","","","","","","","","","","","","","","","","","","","","",""
"","VS_instruct","html-button-response","293","1499008","0.0-287.0","","","","","1532","VS_instruct","0","","","","","","","","","","","","","","","","","","","","","","","","","","","","","","","","","","",""
"","VisSearch","html-button-response","294","1501057","0.0-288.0","","","","","2047.8999998569489","VisSearch","","","true","2","true","","","","","","","","","","","","","","","","","","","","","","","","","","","","","","",""
"","VisSearch","html-button-response","295","1503560","0.0-289.0","","","","","null","VisSearch","","","false","2","true","","","","","","","","","","","","","","","","","","","","","","","","","","","","","","",""
"","VisSearch","html-button-response","296","1505608","0.0-290.0","","","","","2046.1000001430511","VisSearch","","","true","2","true","","","","","","","","","","","","","","","","","","","","","","","","","","","","","","",""
"","VisSearch","html-button-response","297","1508110","0.0-291.0","","","","","null","VisSearch","","","false","2","true","","","","","","","","","","","","","","","","","","","","","","","","","","","","","","",""
"","VisSearch","html-button-response","298","1509241","0.0-292.0","","","","","1129.7000000476837","VisSearch","","","true","2","true","","","","","","","","","","","","","","","","","","","","","","","","","","","","","","",""
"","VisSearch","html-button-response","299","1511744","0.0-293.0","","","","","null","VisSearch","","","false","2","true","","","","","","","","","","","","","","","","","","","","","","","","","","","","","","",""
"","VisSearch","html-button-response","300","1514245","0.0-294.0","","","","","null","VisSearch","","","false","2","true","","","","","","","","","","","","","","","","","","","","","","","","","","","","","","",""
"","VisSearch","html-button-response","301","1515590","0.0-295.0","","","","","1343.8999998569489","VisSearch","","","true","2","true","","","","","","","","","","","","","","","","","","","","","","","","","","","","","","",""
"","VisSearch","html-button-response","302","1518093","0.0-296.0","","","","","null","VisSearch","","","false","2","true","","","","","","","","","","","","","","","","","","","","","","","","","","","","","","",""
"","VisSearch","html-button-response","303","1520595","0.0-297.0","","","","","null","VisSearch","","","false","2","true","","","","","","","","","","","","","","","","","","","","","","","","","","","","","","",""
"","","html-keyboard-response","304","1520601","0.0-298.0","","","","","null","","null","","","","","","","","","","","vissearch-summary-calculation","0.4","1641.8999999761581","","","","","","","","","","","","","","","","","","","","","",""
"","DSB_instruct","html-button-response","305","1523475","0.0-299.0","","","","","2872","DSB_instruct","0","","","","","","","","","","","","","","","","","","","","","","","","","","","","","","","","","","",""
"","DSB 68950232","html-keyboard-response","306","1530804","0.0-300.0","","","","","","DSB","","","","","","[6,8,9,5,0,2,3,2]","8","23205986","","","","","","","","","","","","","","","","","","","","","","","","","","","",""
"","DSBrecall","html-button-response","307","1545857","0.0-301.0","","","","","1548277.5999999046","DSBrecall","23205986","","true","","","","","","8","8","1","","","","","","","","","","","","","","","","","","","","","","","","",""
"","","dsb-summary-calculation","308","1545859","0.0-302.0","","","","","null","","null","","","","","","","","","","","","","","1","8","1","1548277.5999999046","","","","","","","","","","","","","","","","","",""
"","image_instruct","html-button-response","309","1547640","0.0-303.0","","","","","1779","image_instruct","0","","","","","","","","","","","","","","","","","","","","","","","","","","","","","","","","","","",""
"","img8","html-keyboard-response","310","1557642","0.0-304.0","","","","","null","img8","null","","","","","","","","","","","","","","","","","","2","2","","","","","","","","","","","","","","","",""
"","DSB_instruct","html-button-response","311","1559558","0.0-305.0","","","","","1914","DSB_instruct","0","","","","","","","","","","","","","","","","","","","","","","","","","","","","","","","","","","",""
"","DSB 44718123","html-keyboard-response","312","1566886","0.0-306.0","","","","","","DSB","","","","","","[4,4,7,1,8,1,2,3]","8","32181744","","","","","","","","","","","","","","","","","","","","","","","","","","","",""
"","DSBrecall","html-button-response","313","1578858","0.0-307.0","","","","","1581278","DSBrecall","32181744","","true","","","","","","8","8","1","","","","","","","","","","","","","","","","","","","","","","","","",""
"","","dsb-summary-calculation","314","1578860","0.0-308.0","","","","","null","","null","","","","","","","","","","","","","","","","","","","","1","8","1","1581278","","","","","","","","","","","",""
"","consolidated-trial-data","consolidated-trial-data","315","1578861","0.0-309.0","","","","","null","consolidated-trial-data","null","","","","","","","","","","","","","","1","8","1","","2","2","1","8","1","","1","0","39","2","1641.8999999761581","0.4","8","","","","",""
"","","html-button-response","316","1587325","0.0-310.0","","","","","8463","block message","0","","","","","","","","","","","","","","","","","","","","","","","","","","","","","","","","","","",""
"","VS_instruct","html-button-response","317","1589240","0.0-311.0","","","","","1914","VS_instruct","0","","","","","","","","","","","","","","","","","","","","","","","","","","","","","","","","","","",""
"","VisSearch","html-button-response","318","1591743","0.0-312.0","","","","","null","VisSearch","","","false","2","true","","","","","","","","","","","","","","","","","","","","","","","","","","","","","","",""
"","VisSearch","html-button-response","319","1594245","0.0-313.0","","","","","null","VisSearch","","","false","2","true","","","","","","","","","","","","","","","","","","","","","","","","","","","","","","",""
"","VisSearch","html-button-response","320","1595557","0.0-314.0","","","","","1311.3999998569489","VisSearch","","","true","2","true","","","","","","","","","","","","","","","","","","","","","","","","","","","","","","",""
"","VisSearch","html-button-response","321","1598060","0.0-315.0","","","","","null","VisSearch","","","false","2","true","","","","","","","","","","","","","","","","","","","","","","","","","","","","","","",""
"","VisSearch","html-button-response","322","1599624","0.0-316.0","","","","","1562.2000000476837","VisSearch","","","true","2","true","","","","","","","","","","","","","","","","","","","","","","","","","","","","","","",""
"","VisSearch","html-button-response","323","1602127","0.0-317.0","","","","","null","VisSearch","","","false","2","true","","","","","","","","","","","","","","","","","","","","","","","","","","","","","","",""
"","VisSearch","html-button-response","324","1604628","0.0-318.0","","","","","null","VisSearch","","","false","2","true","","","","","","","","","","","","","","","","","","","","","","","","","","","","","","",""
"","VisSearch","html-button-response","325","1607007","0.0-319.0","","","","","2377.2000000476837","VisSearch","","","true","2","true","","","","","","","","","","","","","","","","","","","","","","","","","","","","","","",""
"","VisSearch","html-button-response","326","1608724","0.0-320.0","","","","","1716.1999998092651","VisSearch","","","true","2","true","","","","","","","","","","","","","","","","","","","","","","","","","","","","","","",""
"","VisSearch","html-button-response","327","1609924","0.0-321.0","","","","","1198.4000000953674","VisSearch","","","true","2","true","","","","","","","","","","","","","","","","","","","","","","","","","","","","","","",""
"","","html-keyboard-response","328","1609925","0.0-322.0","","","","","null","","null","","","","","","","","","","","vissearch-summary-calculation","0.5","1633.0799999713897","","","","","","","","","","","","","","","","","","","","","",""
"","DSB_instruct","html-button-response","329","1612992","0.0-323.0","","","","","3065","DSB_instruct","0","","","","","","","","","","","","","","","","","","","","","","","","","","","","","","","","","","",""
"","DSB 16143760","html-keyboard-response","330","1620319","0.0-324.0","","","","","","DSB","","","","","","[1,6,1,4,3,7,6,0]","8","06734161","","","","","","","","","","","","","","","","","","","","","","","","","","","",""
"","DSBrecall","html-button-response","331","1637925","0.0-325.0","","","","","1640344.0999999046","DSBrecall","06734161","","true","","","","","","8","8","1","","","","","","","","","","","","","","","","","","","","","","","","",""
"","","dsb-summary-calculation","332","1637928","0.0-326.0","","","","","null","","null","","","","","","","","","","","","","","1","8","1","1640344.0999999046","","","","","","","","","","","","","","","","","",""
"","image_instruct","html-button-response","333","1639658","0.0-327.0","","","","","1728","image_instruct","0","","","","","","","","","","","","","","","","","","","","","","","","","","","","","","","","","","",""
"","img4","html-keyboard-response","334","1649662","0.0-328.0","","","","","null","img4","null","","","","","","","","","","","","","","","","","","1","2","","","","","","","","","","","","","","","",""
"","DSB_instruct","html-button-response","335","1652574","0.0-329.0","","","","","2911","DSB_instruct","0","","","","","","","","","","","","","","","","","","","","","","","","","","","","","","","","","","",""
"","DSB 27115801","html-keyboard-response","336","1659903","0.0-330.0","","","","","","DSB","","","","","","[2,7,1,1,5,8,0,1]","8","10851172","","","","","","","","","","","","","","","","","","","","","","","","","","","",""
"","DSBrecall","html-button-response","337","1671074","0.0-331.0","","","","","1673493.6999998093","DSBrecall","10851172","","true","","","","","","8","8","1","","","","","","","","","","","","","","","","","","","","","","","","",""
"","","dsb-summary-calculation","338","1671076","0.0-332.0","","","","","null","","null","","","","","","","","","","","","","","","","","","","","1","8","1","1673493.6999998093","","","","","","","","","","","",""
"","consolidated-trial-data","consolidated-trial-data","339","1671078","0.0-333.0","","","","","null","consolidated-trial-data","null","","","","","","","","","","","","","","1","8","1","","1","2","1","8","1","","1","1","39","2","1633.0799999713897","0.5","4","","","","",""
"","","html-button-response","340","1674025","0.0-334.0","","","","","2946","block message","0","","","","","","","","","","","","","","","","","","","","","","","","","","","","","","","","","","",""
"","VS_instruct","html-button-response","341","1676975","0.0-335.0","","","","","2948","VS_instruct","0","","","","","","","","","","","","","","","","","","","","","","","","","","","","","","","","","","",""
"","VisSearch","html-button-response","342","1678541","0.0-336.0","","","","","1564.2000000476837","VisSearch","","","true","2","true","","","","","","","","","","","","","","","","","","","","","","","","","","","","","","",""
"","VisSearch","html-button-response","343","1681043","0.0-337.0","","","","","null","VisSearch","","","false","2","true","","","","","","","","","","","","","","","","","","","","","","","","","","","","","","",""
"","VisSearch","html-button-response","344","1682424","0.0-338.0","","","","","1378.3999998569489","VisSearch","","","true","2","true","","","","","","","","","","","","","","","","","","","","","","","","","","","","","","",""
"","VisSearch","html-button-response","345","1684926","0.0-339.0","","","","","null","VisSearch","","","false","2","true","","","","","","","","","","","","","","","","","","","","","","","","","","","","","","",""
"","VisSearch","html-button-response","346","1686224","0.0-340.0","","","","","1296.1000001430511","VisSearch","","","true","2","true","","","","","","","","","","","","","","","","","","","","","","","","","","","","","","",""
"","VisSearch","html-button-response","347","1688441","0.0-341.0","","","","","2215.7000000476837","VisSearch","","","true","2","true","","","","","","","","","","","","","","","","","","","","","","","","","","","","","","",""
"","VisSearch","html-button-response","348","1690174","0.0-342.0","","","","","1732.2000000476837","VisSearch","","","true","2","true","","","","","","","","","","","","","","","","","","","","","","","","","","","","","","",""
"","VisSearch","html-button-response","349","1692474","0.0-343.0","","","","","2298.600000143051","VisSearch","","","true","2","true","","","","","","","","","","","","","","","","","","","","","","","","","","","","","","",""
"","VisSearch","html-button-response","350","1694977","0.0-344.0","","","","","null","VisSearch","","","false","2","true","","","","","","","","","","","","","","","","","","","","","","","","","","","","","","",""
"","VisSearch","html-button-response","351","1696324","0.0-345.0","","","","","1345.5","VisSearch","","","true","2","true","","","","","","","","","","","","","","","","","","","","","","","","","","","","","","",""
"","","html-keyboard-response","352","1696325","0.0-346.0","","","","","null","","null","","","","","","","","","","","vissearch-summary-calculation","0.7","1690.1000000408717","","","","","","","","","","","","","","","","","","","","","",""
"","DSB_instruct","html-button-response","353","1700542","0.0-347.0","","","","","4215","DSB_instruct","0","","","","","","","","","","","","","","","","","","","","","","","","","","","","","","","","","","",""
"","DSB 56523438","html-keyboard-response","354","1707870","0.0-348.0","","","","","","DSB","","","","","","[5,6,5,2,3,4,3,8]","8","83432565","","","","","","","","","","","","","","","","","","","","","","","","","","","",""
"","DSBrecall","html-button-response","355","1720058","0.0-349.0","","","","","1722477","DSBrecall","83432565","","true","","","","","","8","8","1","","","","","","","","","","","","","","","","","","","","","","","","",""
"","","dsb-summary-calculation","356","1720060","0.0-350.0","","","","","null","","null","","","","","","","","","","","","","","1","8","1","1722477","","","","","","","","","","","","","","","","","",""
"","image_instruct","html-button-response","357","1721773","0.0-351.0","","","","","1712","image_instruct","0","","","","","","","","","","","","","","","","","","","","","","","","","","","","","","","","","","",""
"","img2","html-keyboard-response","358","1731776","0.0-352.0","","","","","null","img2","null","","","","","","","","","","","","","","","","","","2","2","","","","","","","","","","","","","","","",""
"","DSB_instruct","html-button-response","359","1740008","0.0-353.0","","","","","8231","DSB_instruct","0","","","","","","","","","","","","","","","","","","","","","","","","","","","","","","","","","","",""
"","DSB 59995874","html-keyboard-response","360","1747339","0.0-354.0","","","","","","DSB","","","","","","[5,9,9,9,5,8,7,4]","8","47859995","","","","","","","","","","","","","","","","","","","","","","","","","","","",""
"","DSBrecall","html-button-response","361","1758108","0.0-355.0","","","","","1760526.6999998093","DSBrecall","47859995","","true","","","","","","8","8","1","","","","","","","","","","","","","","","","","","","","","","","","",""
"","","dsb-summary-calculation","362","1758110","0.0-356.0","","","","","null","","null","","","","","","","","","","","","","","","","","","","","1","8","1","1760526.6999998093","","","","","","","","","","","",""
"","consolidated-trial-data","consolidated-trial-data","363","1758111","0.0-357.0","","","","","null","consolidated-trial-data","null","","","","","","","","","","","","","","1","8","1","","2","2","1","8","1","","1","2","39","2","1690.1000000408717","0.7","2","","","","",""
"","","html-button-response","364","1763725","0.0-358.0","","","","","5613","block message","0","","","","","","","","","","","","","","","","","","","","","","","","","","","","","","","","","","",""
"","VS_instruct","html-button-response","365","1765375","0.0-359.0","","","","","1648","VS_instruct","0","","","","","","","","","","","","","","","","","","","","","","","","","","","","","","","","","","",""
"","VisSearch","html-button-response","366","1767877","0.0-360.0","","","","","null","VisSearch","","","false","2","true","","","","","","","","","","","","","","","","","","","","","","","","","","","","","","",""
"","VisSearch","html-button-response","367","1770379","0.0-361.0","","","","","null","VisSearch","","","false","2","true","","","","","","","","","","","","","","","","","","","","","","","","","","","","","","",""
"","VisSearch","html-button-response","368","1771907","0.0-362.0","","","","","1525.8999998569489","VisSearch","","","true","2","true","","","","","","","","","","","","","","","","","","","","","","","","","","","","","","",""
"","VisSearch","html-button-response","369","1774411","0.0-363.0","","","","","null","VisSearch","","","false","2","true","","","","","","","","","","","","","","","","","","","","","","","","","","","","","","",""
"","VisSearch","html-button-response","370","1776913","0.0-364.0","","","","","null","VisSearch","","","false","2","true","","","","","","","","","","","","","","","","","","","","","","","","","","","","","","",""
"","VisSearch","html-button-response","371","1778924","0.0-365.0","","","","","2009.8000001907349","VisSearch","","","true","2","true","","","","","","","","","","","","","","","","","","","","","","","","","","","","","","",""
"","VisSearch","html-button-response","372","1780275","0.0-366.0","","","","","1348.9000000953674","VisSearch","","","true","2","true","","","","","","","","","","","","","","","","","","","","","","","","","","","","","","",""
"","VisSearch","html-button-response","373","1781524","0.0-367.0","","","","","1247.5999999046326","VisSearch","","","true","2","true","","","","","","","","","","","","","","","","","","","","","","","","","","","","","","",""
"","VisSearch","html-button-response","374","1783157","0.0-368.0","","","","","1632.3999998569489","VisSearch","","","true","2","true","","","","","","","","","","","","","","","","","","","","","","","","","","","","","","",""
"","VisSearch","html-button-response","375","1785541","0.0-369.0","","","","","2382.2000000476837","VisSearch","","","true","2","true","","","","","","","","","","","","","","","","","","","","","","","","","","","","","","",""
"","","html-keyboard-response","376","1785542","0.0-370.0","","","","","null","","null","","","","","","","","","","","vissearch-summary-calculation","0.6","1691.133333325386","","","","","","","","","","","","","","","","","","","","","",""
"","DSB_instruct","html-button-response","377","1789175","0.0-371.0","","","","","3631","DSB_instruct","0","","","","","","","","","","","","","","","","","","","","","","","","","","","","","","","","","","",""
"","DSB 15388650","html-keyboard-response","378","1796502","0.0-372.0","","","","","","DSB","","","","","","[1,5,3,8,8,6,5,0]","8","05688351","","","","","","","","","","","","","","","","","","","","","","","","","","","",""
"","DSBrecall","html-button-response","379","1809457","0.0-373.0","","","","","1811875.399999857","DSBrecall","05688351","","true","","","","","","8","8","1","","","","","","","","","","","","","","","","","","","","","","","","",""
"","","dsb-summary-calculation","380","1809458","0.0-374.0","","","","","null","","null","","","","","","","","","","","","","","1","8","1","1811875.399999857","","","","","","","","","","","","","","","","","",""
"","image_instruct","html-button-response","381","1811540","0.0-375.0","","","","","2082","image_instruct","0","","","","","","","","","","","","","","","","","","","","","","","","","","","","","","","","","","",""
"","img1","html-keyboard-response","382","1821543","0.0-376.0","","","","","null","img1","null","","","","","","","","","","","","","","","","","","1","1","","","","","","","","","","","","","","","",""
"","DSB_instruct","html-button-response","383","1825191","0.0-377.0","","","","","3647","DSB_instruct","0","","","","","","","","","","","","","","","","","","","","","","","","","","","","","","","","","","",""
"","DSB 10476955","html-keyboard-response","384","1832518","0.0-378.0","","","","","","DSB","","","","","","[1,0,4,7,6,9,5,5]","8","55967401","","","","","","","","","","","","","","","","","","","","","","","","","","","",""
"","DSBrecall","html-button-response","385","1849224","0.0-379.0","","","","","1851642.5999999046","DSBrecall","55967451","","false","","","","","","8","7","0.875","","","","","","","","","","","","","","","","","","","","","","","","",""
"","","dsb-summary-calculation","386","1849226","0.0-380.0","","","","","null","","null","","","","","","","","","","","","","","","","","","","","0","0","0.875","1851642.5999999046","","","","","","","","","","","",""
"","consolidated-trial-data","consolidated-trial-data","387","1849227","0.0-381.0","","","","","null","consolidated-trial-data","null","","","","","","","","","","","","","","1","8","1","","1","1","0","0","0.875","","1","3","39","2","1691.133333325386","0.6","1","","","","",""
"","","html-button-response","388","1854292","0.0-382.0","","","","","5064","block message","0","","","","","","","","","","","","","","","","","","","","","","","","","","","","","","","","","","",""
"","VS_instruct","html-button-response","389","1855491","0.0-383.0","","","","","1198","VS_instruct","0","","","","","","","","","","","","","","","","","","","","","","","","","","","","","","","","","","",""
"","VisSearch","html-button-response","390","1857994","0.0-384.0","","","","","null","VisSearch","","","false","2","true","","","","","","","","","","","","","","","","","","","","","","","","","","","","","","",""
"","VisSearch","html-button-response","391","1860408","0.0-385.0","","","","","2412.7999999523163","VisSearch","","","true","2","true","","","","","","","","","","","","","","","","","","","","","","","","","","","","","","",""
"","VisSearch","html-button-response","392","1862675","0.0-386.0","","","","","2265.0999999046326","VisSearch","","","true","2","true","","","","","","","","","","","","","","","","","","","","","","","","","","","","","","",""
"","VisSearch","html-button-response","393","1865177","0.0-387.0","","","","","null","VisSearch","","","false","2","true","","","","","","","","","","","","","","","","","","","","","","","","","","","","","","",""
"","VisSearch","html-button-response","394","1866141","0.0-388.0","","","","","962.7999999523163","VisSearch","","","true","2","true","","","","","","","","","","","","","","","","","","","","","","","","","","","","","","",""
"","VisSearch","html-button-response","395","1868644","0.0-389.0","","","","","null","VisSearch","","","false","2","true","","","","","","","","","","","","","","","","","","","","","","","","","","","","","","",""
"","VisSearch","html-button-response","396","1871146","0.0-390.0","","","","","null","VisSearch","","","false","2","true","","","","","","","","","","","","","","","","","","","","","","","","","","","","","","",""
"","VisSearch","html-button-response","397","1873648","0.0-391.0","","","","","null","VisSearch","","","false","2","true","","","","","","","","","","","","","","","","","","","","","","","","","","","","","","",""
"","VisSearch","html-button-response","398","1876150","0.0-392.0","","","","","null","VisSearch","","","false","2","true","","","","","","","","","","","","","","","","","","","","","","","","","","","","","","",""
"","VisSearch","html-button-response","399","1878652","0.0-393.0","","","","","null","VisSearch","","","false","2","true","","","","","","","","","","","","","","","","","","","","","","","","","","","","","","",""
"","","html-keyboard-response","400","1878658","0.0-394.0","","","","","null","","null","","","","","","","","","","","vissearch-summary-calculation","0.3","1880.2333332697551","","","","","","","","","","","","","","","","","","","","","",""
"","DSB_instruct","html-button-response","401","1880958","0.0-395.0","","","","","2299","DSB_instruct","0","","","","","","","","","","","","","","","","","","","","","","","","","","","","","","","","","","",""
"","DSB 03388073","html-keyboard-response","402","1888287","0.0-396.0","","","","","","DSB","","","","","","[0,3,3,8,8,0,7,3]","8","37088330","","","","","","","","","","","","","","","","","","","","","","","","","","","",""
"","DSBrecall","html-button-response","403","1906908","0.0-397.0","","","","","1909326.0999999046","DSBrecall","37088330","","true","","","","","","8","8","1","","","","","","","","","","","","","","","","","","","","","","","","",""
"","","dsb-summary-calculation","404","1906910","0.0-398.0","","","","","null","","null","","","","","","","","","","","","","","1","8","1","1909326.0999999046","","","","","","","","","","","","","","","","","",""
"","image_instruct","html-button-response","405","1909291","0.0-399.0","","","","","2380","image_instruct","0","","","","","","","","","","","","","","","","","","","","","","","","","","","","","","","","","","",""
"","img6","html-keyboard-response","406","1919295","0.0-400.0","","","","","null","img6","null","","","","","","","","","","","","","","","","","","3","2","","","","","","","","","","","","","","","",""
"","DSB_instruct","html-button-response","407","1923642","0.0-401.0","","","","","4345","DSB_instruct","0","","","","","","","","","","","","","","","","","","","","","","","","","","","","","","","","","","",""
"","DSB 70328861","html-keyboard-response","408","1930969","0.0-402.0","","","","","","DSB","","","","","","[7,0,3,2,8,8,6,1]","8","16882307","","","","","","","","","","","","","","","","","","","","","","","","","","","",""
"","DSBrecall","html-button-response","409","1943558","0.0-403.0","","","","","1945975.899999857","DSBrecall","16882307","","true","","","","","","8","8","1","","","","","","","","","","","","","","","","","","","","","","","","",""
"","","dsb-summary-calculation","410","1943560","0.0-404.0","","","","","null","","null","","","","","","","","","","","","","","","","","","","","1","8","1","1945975.899999857","","","","","","","","","","","",""
"","consolidated-trial-data","consolidated-trial-data","411","1943561","0.0-405.0","","","","","null","consolidated-trial-data","null","","","","","","","","","","","","","","1","8","1","","3","2","1","8","1","","1","4","39","2","1880.2333332697551","0.3","6","","","","",""
"","","html-button-response","412","1946008","0.0-406.0","","","","","2446","block message","0","","","","","","","","","","","","","","","","","","","","","","","","","","","","","","","","","","",""
"","VS_instruct","html-button-response","413","1946958","0.0-407.0","","","","","948","VS_instruct","0","","","","","","","","","","","","","","","","","","","","","","","","","","","","","","","","","","",""
"","VisSearch","html-button-response","414","1948441","0.0-408.0","","","","","1480.7999999523163","VisSearch","","","true","2","true","","","","","","","","","","","","","","","","","","","","","","","","","","","","","","",""
"","VisSearch","html-button-response","415","1950944","0.0-409.0","","","","","null","VisSearch","","","false","2","true","","","","","","","","","","","","","","","","","","","","","","","","","","","","","","",""
"","VisSearch","html-button-response","416","1952692","0.0-410.0","","","","","1746.6000001430511","VisSearch","","","true","2","true","","","","","","","","","","","","","","","","","","","","","","","","","","","","","","",""
"","VisSearch","html-button-response","417","1955194","0.0-411.0","","","","","null","VisSearch","","","false","2","true","","","","","","","","","","","","","","","","","","","","","","","","","","","","","","",""
"","VisSearch","html-button-response","418","1957696","0.0-412.0","","","","","null","VisSearch","","","false","2","true","","","","","","","","","","","","","","","","","","","","","","","","","","","","","","",""
"","VisSearch","html-button-response","419","1959741","0.0-413.0","","","","","2043.8999998569489","VisSearch","","","true","2","true","","","","","","","","","","","","","","","","","","","","","","","","","","","","","","",""
"","VisSearch","html-button-response","420","1962244","0.0-414.0","","","","","null","VisSearch","","","false","2","true","","","","","","","","","","","","","","","","","","","","","","","","","","","","","","",""
"","VisSearch","html-button-response","421","1964746","0.0-415.0","","","","","null","VisSearch","","","false","2","true","","","","","","","","","","","","","","","","","","","","","","","","","","","","","","",""
"","VisSearch","html-button-response","422","1966608","0.0-416.0","","","","","1861.2000000476837","VisSearch","","","true","2","true","","","","","","","","","","","","","","","","","","","","","","","","","","","","","","",""
"","VisSearch","html-button-response","423","1969111","0.0-417.0","","","","","null","VisSearch","","","false","2","true","","","","","","","","","","","","","","","","","","","","","","","","","","","","","","",""
"","","html-keyboard-response","424","1969116","0.0-418.0","","","","","null","","null","","","","","","","","","","","vissearch-summary-calculation","0.4","1783.125","","","","","","","","","","","","","","","","","","","","","",""
"","DSB_instruct","html-button-response","425","1972242","0.0-419.0","","","","","3124","DSB_instruct","0","","","","","","","","","","","","","","","","","","","","","","","","","","","","","","","","","","",""
"","DSB 84653877","html-keyboard-response","426","1979570","0.0-420.0","","","","","","DSB","","","","","","[8,4,6,5,3,8,7,7]","8","77835648","","","","","","","","","","","","","","","","","","","","","","","","","","","",""
"","DSBrecall","html-button-response","427","1992591","0.0-421.0","","","","","1995008.7999999523","DSBrecall","77835648","","true","","","","","","8","8","1","","","","","","","","","","","","","","","","","","","","","","","","",""
"","","dsb-summary-calculation","428","1992594","0.0-422.0","","","","","null","","null","","","","","","","","","","","","","","1","8","1","1995008.7999999523","","","","","","","","","","","","","","","","","",""
"","image_instruct","html-button-response","429","1994175","0.0-423.0","","","","","1579","image_instruct","0","","","","","","","","","","","","","","","","","","","","","","","","","","","","","","","","","","",""
"","img7","html-keyboard-response","430","2004178","0.0-424.0","","","","","null","img7","null","","","","","","","","","","","","","","","","","","1","2","","","","","","","","","","","","","","","",""
"","DSB_instruct","html-button-response","431","2009425","0.0-425.0","","","","","5245","DSB_instruct","0","","","","","","","","","","","","","","","","","","","","","","","","","","","","","","","","","","",""
"","DSB 83047430","html-keyboard-response","432","2016754","0.0-426.0","","","","","","DSB","","","","","","[8,3,0,4,7,4,3,0]","8","03474038","","","","","","","","","","","","","","","","","","","","","","","","","","","",""
"","DSBrecall","html-button-response","433","2051292","0.0-427.0","","","","","2053708.899999857","DSBrecall","03470438","","false","","","","","","8","6","0.75","","","","","","","","","","","","","","","","","","","","","","","","",""
"","","dsb-summary-calculation","434","2051294","0.0-428.0","","","","","null","","null","","","","","","","","","","","","","","","","","","","","0","0","0.75","2053708.899999857","","","","","","","","","","","",""
"","consolidated-trial-data","consolidated-trial-data","435","2051295","0.0-429.0","","","","","null","consolidated-trial-data","null","","","","","","","","","","","","","","1","8","1","","1","2","0","0","0.75","","1","5","39","2","1783.125","0.4","7","","","","",""
"","","html-button-response","436","2055359","0.0-430.0","","","","","4063","block message","0","","","","","","","","","","","","","","","","","","","","","","","","","","","","","","","","","","",""
"","VS_instruct","html-button-response","437","2056525","0.0-431.0","","","","","1165","VS_instruct","0","","","","","","","","","","","","","","","","","","","","","","","","","","","","","","","","","","",""
"","VisSearch","html-button-response","438","2058074","0.0-432.0","","","","","1546.5","VisSearch","","","true","2","true","","","","","","","","","","","","","","","","","","","","","","","","","","","","","","",""
"","VisSearch","html-button-response","439","2060577","0.0-433.0","","","","","null","VisSearch","","","false","2","true","","","","","","","","","","","","","","","","","","","","","","","","","","","","","","",""
"","VisSearch","html-button-response","440","2062325","0.0-434.0","","","","","1746.7999999523163","VisSearch","","","true","2","true","","","","","","","","","","","","","","","","","","","","","","","","","","","","","","",""
