"success","timeout","failed_images","failed_audio","failed_video","trial_type","trial_index","time_elapsed","internal_node_id","rt","stimulus","response","task","pixels_per_unit","is_correct","search_difficulty","enhanced","originalDigits","currentSpanLength","reversedDigits","span_length","correct_digits","digit_accuracy","trial_Type","VISsearch_propcorrect","VISsearch_meanRT","DSBpre_propcorrect","DSBpre_maxspan","DSBpre_digitaccuracy","DSBpre_rt","vegetationLevel","imageType","DSBpost_propcorrect","DSBpost_maxspan","DSBpost_digitaccuracy","DSBpost_rt","block","trial","trialid","VisDifficulty","Vis_meanRT","Vis_propCorr","imageIDX","attention_check_correct","target_button","question_order","image_id","iamge_set"
"true","false","[]","[]","[]","preload","0","4660","0.0-0.0","","","","","","","","","","","","","","","","","","","","","","","","","","","","","","","","","","","","","","",""
"","","","","","html-button-response","1","20085","0.0-1.0","15424","welcome_msg","0","wecome","","","","","","","","","","","","","","","","","","","","","","","","","","","","","","","","","","",""
"","","","","","html-button-response","2","24005","0.0-2.0","3917","PISdoc","0","PIS","","","","","","","","","","","","","","","","","","","","","","","","","","","","","","","","","","",""
"","","","","","html-button-response","3","33772","0.0-3.0","9767","<div style= ""font-size: 24px; color: white; 
        position: absolute;
         top: 50%;left: 50%; transform: translate(-50%, -50%)"">        

            <br>Welcome to the experiment.<br> 
            Please read the instructions carefully.<br>
            There are two task types.<br><br>
            In the visual search task:<br>
            You must search the screen for either a red <font color = ""red"">""T"" </font>
            or blue <font color = ""blue""> ""O"" </font> hidden among red <font color = ""red""> ""X""s </font>.
            <br><br> In the digit task:<br> You must recall a list of numbers in reverse order. </div>
        ","0","","","","","","","","","","","","","","","","","","","","","","","","","","","","","","","","","","","",""
"","","","","","html-button-response","4","52144","0.0-4.0","18371","calibration","0","calibration","96","","","","","","","","","","","","","","","","","","","","","","","","","","","","","","","","","",""
"","","","","","html-button-response","5","60388","0.0-5.0","8243","VS_instruct","0","VS_instruct","","","","","","","","","","","","","","","","","","","","","","","","","","","","","","","","","","",""
"","","","","","html-button-response","6","61236","0.0-6.0","846.7999999998137","VisSearch","","VisSearch","","true","1","true","","","","","","","","","","","","","","","","","","","","","","","","","","","","","","",""
"","","","","","html-button-response","7","62037","0.0-7.0","801.2000000001863","VisSearch","","VisSearch","","true","1","true","","","","","","","","","","","","","","","","","","","","","","","","","","","","","","",""
"","","","","","html-button-response","8","62673","0.0-8.0","635.5","VisSearch","","VisSearch","","true","1","true","","","","","","","","","","","","","","","","","","","","","","","","","","","","","","",""
"","","","","","html-button-response","9","63459","0.0-9.0","785.4000000003725","VisSearch","","VisSearch","","true","1","true","","","","","","","","","","","","","","","","","","","","","","","","","","","","","","",""
"","","","","","html-button-response","10","64499","0.0-10.0","1039.4000000003725","VisSearch","","VisSearch","","true","1","true","","","","","","","","","","","","","","","","","","","","","","","","","","","","","","",""
"","","","","","html-button-response","11","65508","0.0-11.0","1008.5","VisSearch","","VisSearch","","true","1","true","","","","","","","","","","","","","","","","","","","","","","","","","","","","","","",""
"","","","","","html-button-response","12","66558","0.0-12.0","1049.6000000005588","VisSearch","","VisSearch","","true","1","true","","","","","","","","","","","","","","","","","","","","","","","","","","","","","","",""
"","","","","","html-button-response","13","67705","0.0-13.0","1146.6000000005588","VisSearch","","VisSearch","","true","1","true","","","","","","","","","","","","","","","","","","","","","","","","","","","","","","",""
"","","","","","html-button-response","14","68892","0.0-14.0","1186.5","VisSearch","","VisSearch","","true","1","true","","","","","","","","","","","","","","","","","","","","","","","","","","","","","","",""
"","","","","","html-button-response","15","69895","0.0-15.0","1002.5","VisSearch","","VisSearch","","true","1","true","","","","","","","","","","","","","","","","","","","","","","","","","","","","","","",""
"","","","","","html-button-response","16","74268","0.0-16.0","4372","DSB_instruct","0","DSB_instruct","","","","","","","","","","","","","","","","","","","","","","","","","","","","","","","","","","",""
"","","","","","html-keyboard-response","17","78848","0.0-17.0","","DSB","","DSB 6068","","","","","[6,0,6,8]","4","8606","","","","","","","","","","","","","","","","","","","","","","","","","","","",""
"","","","","","html-button-response","18","88471","0.0-18.0","88849.09999999963","DSBrecall","8606","DSBrecall","","true","","","","","","4","4","1","","","","","","","","","","","","","","","","","","","","","","","","",""
"","","","","","html-button-response","19","89501","0.0-19.0","1029","<p style='color:green;'>Correct!</p><p>Good job!</p>","0","feedback","","","","","","","","","","","","","","","","","","","","","","","","","","","","","","","","","","",""
"","","","","","html-button-response","20","92652","0.0-20.0","3151","DSB_instruct","0","DSB_instruct","","","","","","","","","","","","","","","","","","","","","","","","","","","","","","","","","","",""
"","","","","","html-keyboard-response","21","101691","0.0-21.0","","DSB","","DSB 92449077","","","","","[9,2,4,4,9,0,7,7]","8","77094429","","","","","","","","","","","","","","","","","","","","","","","","","","","",""
"","","","","","html-button-response","22","110334","0.0-22.0","110712.09999999963","DSBrecall","77099221","DSBrecall","","false","","","","","","8","5","0.625","","","","","","","","","","","","","","","","","","","","","","","","",""
"","","","","","html-button-response","23","112034","0.0-23.0","1700","<p style='color:red;'>Incorrect.</p><p>Try to recall in the reversed order.</p>","0","feedback","","","","","","","","","","","","","","","","","","","","","","","","","","","","","","","","","","",""
"","","","","","html-button-response","24","114247","0.0-24.0","2213","VS_instruct","0","VS_instruct","","","","","","","","","","","","","","","","","","","","","","","","","","","","","","","","","","",""
"","","","","","html-button-response","25","116592","0.0-25.0","2345.100000000559","VisSearch","","VisSearch","","true","2","true","","","","","","","","","","","","","","","","","","","","","","","","","","","","","","",""
"","","","","","html-button-response","26","118465","0.0-26.0","1872.5","VisSearch","","VisSearch","","true","2","true","","","","","","","","","","","","","","","","","","","","","","","","","","","","","","",""
"","","","","","html-button-response","27","119935","0.0-27.0","1469.5","VisSearch","","VisSearch","","true","2","true","","","","","","","","","","","","","","","","","","","","","","","","","","","","","","",""
"","","","","","html-button-response","28","121017","0.0-28.0","1081.5999999996275","VisSearch","","VisSearch","","true","2","true","","","","","","","","","","","","","","","","","","","","","","","","","","","","","","",""
"","","","","","html-button-response","29","122131","0.0-29.0","1113.7000000001863","VisSearch","","VisSearch","","true","2","true","","","","","","","","","","","","","","","","","","","","","","","","","","","","","","",""
"","","","","","html-button-response","30","124405","0.0-30.0","2273.600000000559","VisSearch","","VisSearch","","true","2","true","","","","","","","","","","","","","","","","","","","","","","","","","","","","","","",""
"","","","","","html-button-response","31","126517","0.0-31.0","2111.5","VisSearch","","VisSearch","","true","2","true","","","","","","","","","","","","","","","","","","","","","","","","","","","","","","",""
"","","","","","html-button-response","32","127447","0.0-32.0","929.5","VisSearch","","VisSearch","","true","2","true","","","","","","","","","","","","","","","","","","","","","","","","","","","","","","",""
"","","","","","html-button-response","33","129952","0.0-33.0","null","VisSearch","","VisSearch","","false","2","true","","","","","","","","","","","","","","","","","","","","","","","","","","","","","","",""
"","","","","","html-button-response","34","131015","0.0-34.0","1062.5","VisSearch","","VisSearch","","true","2","true","","","","","","","","","","","","","","","","","","","","","","","","","","","","","","",""
"","","","","","html-button-response","35","132640","0.0-35.0","1624","DSB_instruct","0","DSB_instruct","","","","","","","","","","","","","","","","","","","","","","","","","","","","","","","","","","",""
"","","","","","html-keyboard-response","36","137211","0.0-36.0","","DSB","","DSB 8576","","","","","[8,5,7,6]","4","6758","","","","","","","","","","","","","","","","","","","","","","","","","","","",""
"","","","","","html-button-response","37","145625","0.0-37.0","146003.09999999963","DSBrecall","6587","DSBrecall","","false","","","","","","4","1","0.25","","","","","","","","","","","","","","","","","","","","","","","","",""
"","","","","","html-button-response","38","147089","0.0-38.0","1463","<p style='color:red;'>Incorrect.</p><p>Try to recall in the reversed order.</p>","0","feedback","","","","","","","","","","","","","","","","","","","","","","","","","","","","","","","","","","",""
"","","","","","html-button-response","39","149612","0.0-39.0","2523","DSB_instruct","0","DSB_instruct","","","","","","","","","","","","","","","","","","","","","","","","","","","","","","","","","","",""
"","","","","","html-keyboard-response","40","158669","0.0-40.0","","DSB","","DSB 80159076","","","","","[8,0,1,5,9,0,7,6]","8","67095108","","","","","","","","","","","","","","","","","","","","","","","","","","","",""
"","","","","","html-button-response","41","167820","0.0-41.0","168198.89999999944","DSBrecall","67810156","DSBrecall","","false","","","","","","8","3","0.375","","","","","","","","","","","","","","","","","","","","","","","","",""
"","","","","","html-button-response","42","168694","0.0-42.0","872","<p style='color:red;'>Incorrect.</p><p>Try to recall in the reversed order.</p>","0","feedback","","","","","","","","","","","","","","","","","","","","","","","","","","","","","","","","","","",""
"","","","","","html-button-response","43","171098","0.0-43.0-0.0","2403","expInstruc","0","expIntructions","","","","","","","","","","","","","","","","","","","","","","","","","","","","","","","","","","",""
"","","","","","html-button-response","44","175247","0.0-43.0-0.1","4148","expInstruc","0","expIntructions","","","","","","","","","","","","","","","","","","","","","","","","","","","","","","","","","","",""
"","","","","","html-button-response","45","176142","0.0-43.0-0.2","895","expInstruc","0","expIntructions","","","","","","","","","","","","","","","","","","","","","","","","","","","","","","","","","","",""
"","","","","","html-button-response","46","178957","0.0-43.0-0.3","2814","expInstruc","0","expIntructions","","","","","","","","","","","","","","","","","","","","","","","","","","","","","","","","","","",""
"","","","","","html-button-response","47","181030","0.0-43.0-0.4","2073","expInstruc","0","expIntructions","","","","","","","","","","","","","","","","","","","","","","","","","","","","","","","","","","",""
"","","","","","html-button-response","48","201470","0.0-43.0-0.5","20439","expInstruc","0","expIntructions","","","","","","","","","","","","","","","","","","","","","","","","","","","","","","","","","","",""
"","","","","","html-button-response","49","206836","0.0-43.0-0.6","5366","expInstruc","0","expIntructions","","","","","","","","","","","","","","","","","","","","","","","","","","","","","","","","","","",""
"","","","","","html-button-response","50","222078","0.0-44.0","15241","block message","0","","","","","","","","","","","","","","","","","","","","","","","","","","","","","","","","","","","",""
"","","","","","html-button-response","51","224856","0.0-45.0","2777","VS_instruct","0","VS_instruct","","","","","","","","","","","","","","","","","","","","","","","","","","","","","","","","","","",""
"","","","","","html-button-response","52","226155","0.0-46.0","1299","VisSearch","","VisSearch","","true","2","true","","","","","","","","","","","","","","","","","","","","","","","","","","","","","","",""
"","","","","","html-button-response","53","227219","0.0-47.0","1063.5999999996275","VisSearch","","VisSearch","","true","2","true","","","","","","","","","","","","","","","","","","","","","","","","","","","","","","",""
"","","","","","html-button-response","54","228294","0.0-48.0","1074.5","VisSearch","","VisSearch","","true","2","true","","","","","","","","","","","","","","","","","","","","","","","","","","","","","","",""
"","","","","","html-button-response","55","229287","0.0-49.0","992.5999999996275","VisSearch","","VisSearch","","true","2","true","","","","","","","","","","","","","","","","","","","","","","","","","","","","","","",""
"","","","","","html-button-response","56","231790","0.0-50.0","null","VisSearch","","VisSearch","","false","2","true","","","","","","","","","","","","","","","","","","","","","","","","","","","","","","",""
"","","","","","html-button-response","57","233725","0.0-51.0","1934.699999999255","VisSearch","","VisSearch","","true","2","true","","","","","","","","","","","","","","","","","","","","","","","","","","","","","","",""
"","","","","","html-button-response","58","236227","0.0-52.0","null","VisSearch","","VisSearch","","false","2","true","","","","","","","","","","","","","","","","","","","","","","","","","","","","","","",""
"","","","","","html-button-response","59","237730","0.0-53.0","1502.5999999996275","VisSearch","","VisSearch","","true","2","true","","","","","","","","","","","","","","","","","","","","","","","","","","","","","","",""
"","","","","","html-button-response","60","238640","0.0-54.0","909.3999999994412","VisSearch","","VisSearch","","true","2","true","","","","","","","","","","","","","","","","","","","","","","","","","","","","","","",""
"","","","","","html-button-response","61","240255","0.0-55.0","1614.2999999998137","VisSearch","","VisSearch","","true","2","true","","","","","","","","","","","","","","","","","","","","","","","","","","","","","","",""
"","","","","","html-keyboard-response","62","240263","0.0-56.0","null","","null","","","","","","","","","","","","vissearch-summary-calculation","0.8","1298.837499999674","","","","","","","","","","","","","","","","","","","","","",""
"","","","","","html-button-response","63","241334","0.0-57.0","1070","DSB_instruct","0","DSB_instruct","","","","","","","","","","","","","","","","","","","","","","","","","","","","","","","","","","",""
"","","","","","html-keyboard-response","64","250400","0.0-58.0","","DSB","","DSB 83887709","","","","","[8,3,8,8,7,7,0,9]","8","90778838","","","","","","","","","","","","","","","","","","","","","","","","","","","",""
"","","","","","html-button-response","65","269370","0.0-59.0","269748.89999999944","DSBrecall","97308839","DSBrecall","","false","","","","","","8","4","0.5","","","","","","","","","","","","","","","","","","","","","","","","",""
"","","","","","dsb-summary-calculation","66","269371","0.0-60.0","null","","null","","","","","","","","","","","","","","","0","0","0.5","269748.89999999944","","","","","","","","","","","","","","","","","",""
"","","","","","html-button-response","67","270977","0.0-61.0","1605","image_instruct","0","image_instruct","","","","","","","","","","","","","","","","","","","","","","","","","","","","","","","","","","",""
"","","","","","html-keyboard-response","68","285990","0.0-62.0","null","img9","null","img9","","","","","","","","","","","","","","","","","","3","1","","","","","","","","","","","","","","","",""
"","","","","","html-button-response","69","287737","0.0-63.0","1746","DSB_instruct","0","DSB_instruct","","","","","","","","","","","","","","","","","","","","","","","","","","","","","","","","","","",""
"","","","","","html-keyboard-response","70","296781","0.0-64.0","","DSB","","DSB 43690440","","","","","[4,3,6,9,0,4,4,0]","8","04409634","","","","","","","","","","","","","","","","","","","","","","","","","","","",""
"","","","","","html-button-response","71","307292","0.0-65.0","307670.89999999944","DSBrecall","04409643","DSBrecall","","false","","","","","","8","6","0.75","","","","","","","","","","","","","","","","","","","","","","","","",""
"","","","","","dsb-summary-calculation","72","307293","0.0-66.0","null","","null","","","","","","","","","","","","","","","","","","","","","0","0","0.75","307670.89999999944","","","","","","","","","","","",""
"","","","","","consolidated-trial-data","73","307294","0.0-67.0","null","consolidated-trial-data","null","consolidated-trial-data","","","","","","","","","","","","","","0","0","0.5","","3","1","0","0","0.75","","0","0","39","2","1298.837499999674","0.8","9","","","","",""
"","","","","","html-button-response","74","312482","0.0-68.0","5188","attncheck","0","attncheck","","","","","","","","","","","","","","","","","","","","","","","","","","","","","","","true","Stop","","",""
"","","","","","html-button-response","75","314503","0.0-69.0","2021","block message","0","","","","","","","","","","","","","","","","","","","","","","","","","","","","","","","","","","","",""
"","","","","","html-button-response","76","315745","0.0-70.0","1241","VS_instruct","0","VS_instruct","","","","","","","","","","","","","","","","","","","","","","","","","","","","","","","","","","",""
"","","","","","html-button-response","77","317425","0.0-71.0","1680.0999999996275","VisSearch","","VisSearch","","true","2","true","","","","","","","","","","","","","","","","","","","","","","","","","","","","","","",""
"","","","","","html-button-response","78","319928","0.0-72.0","null","VisSearch","","VisSearch","","false","2","true","","","","","","","","","","","","","","","","","","","","","","","","","","","","","","",""
"","","","","","html-button-response","79","321470","0.0-73.0","1542.0999999996275","VisSearch","","VisSearch","","true","2","true","","","","","","","","","","","","","","","","","","","","","","","","","","","","","","",""
"","","","","","html-button-response","80","323196","0.0-74.0","1725.5","VisSearch","","VisSearch","","true","2","true","","","","","","","","","","","","","","","","","","","","","","","","","","","","","","",""
"","","","","","html-button-response","81","324254","0.0-75.0","1057.5999999996275","VisSearch","","VisSearch","","true","2","true","","","","","","","","","","","","","","","","","","","","","","","","","","","","","","",""
"","","","","","html-button-response","82","326757","0.0-76.0","null","VisSearch","","VisSearch","","false","2","true","","","","","","","","","","","","","","","","","","","","","","","","","","","","","","",""
"","","","","","html-button-response","83","328093","0.0-77.0","1335.699999999255","VisSearch","","VisSearch","","true","2","true","","","","","","","","","","","","","","","","","","","","","","","","","","","","","","",""
"","","","","","html-button-response","84","330257","0.0-78.0","2163.600000000559","VisSearch","","VisSearch","","true","2","true","","","","","","","","","","","","","","","","","","","","","","","","","","","","","","",""
"","","","","","html-button-response","85","332760","0.0-79.0","null","VisSearch","","VisSearch","","false","2","true","","","","","","","","","","","","","","","","","","","","","","","","","","","","","","",""
"","","","","","html-button-response","86","333444","0.0-80.0","684.0999999996275","VisSearch","","VisSearch","","true","2","true","","","","","","","","","","","","","","","","","","","","","","","","","","","","","","",""
"","","","","","html-keyboard-response","87","333447","0.0-81.0","null","","null","","","","","","","","","","","","vissearch-summary-calculation","0.7","1455.528571428332","","","","","","","","","","","","","","","","","","","","","",""
"","","","","","html-button-response","88","336796","0.0-82.0","3347","DSB_instruct","0","DSB_instruct","","","","","","","","","","","","","","","","","","","","","","","","","","","","","","","","","","",""
"","","","","","html-keyboard-response","89","345860","0.0-83.0","","DSB","","DSB 07860215","","","","","[0,7,8,6,0,2,1,5]","8","51206870","","","","","","","","","","","","","","","","","","","","","","","","","","","",""
"","","","","","html-button-response","90","355205","0.0-84.0","355583.7999999998","DSBrecall","51206879","DSBrecall","","false","","","","","","8","7","0.875","","","","","","","","","","","","","","","","","","","","","","","","",""
"","","","","","dsb-summary-calculation","91","355206","0.0-85.0","null","","null","","","","","","","","","","","","","","","0","0","0.875","355583.7999999998","","","","","","","","","","","","","","","","","",""
"","","","","","html-button-response","92","360521","0.0-86.0","5314","image_instruct","0","image_instruct","","","","","","","","","","","","","","","","","","","","","","","","","","","","","","","","","","",""
"","","","","","html-keyboard-response","93","375524","0.0-87.0","null","img4","null","img4","","","","","","","","","","","","","","","","","","1","2","","","","","","","","","","","","","","","",""
"","","","","","html-button-response","94","379025","0.0-88.0","3500","DSB_instruct","0","DSB_instruct","","","","","","","","","","","","","","","","","","","","","","","","","","","","","","","","","","",""
"","","","","","html-keyboard-response","95","388085","0.0-89.0","","DSB","","DSB 59042112","","","","","[5,9,0,4,2,1,1,2]","8","21124095","","","","","","","","","","","","","","","","","","","","","","","","","","","",""
"","","","","","html-button-response","96","396007","0.0-90.0","396385.89999999944","DSBrecall","21124095","DSBrecall","","true","","","","","","8","8","1","","","","","","","","","","","","","","","","","","","","","","","","",""
"","","","","","dsb-summary-calculation","97","396008","0.0-91.0","null","","null","","","","","","","","","","","","","","","","","","","","","1","8","1","396385.89999999944","","","","","","","","","","","",""
"","","","","","consolidated-trial-data","98","396009","0.0-92.0","null","consolidated-trial-data","null","consolidated-trial-data","","","","","","","","","","","","","","0","0","0.875","","1","2","1","8","1","","0","1","39","2","1455.528571428332","0.7","4","","","","",""
"","","","","","html-button-response","99","397187","0.0-93.0","1178","block message","0","","","","","","","","","","","","","","","","","","","","","","","","","","","","","","","","","","","",""
"","","","","","html-button-response","100","398236","0.0-94.0","1048","VS_instruct","0","VS_instruct","","","","","","","","","","","","","","","","","","","","","","","","","","","","","","","","","","",""
"","","","","","html-button-response","101","400388","0.0-95.0","2152","VisSearch","","VisSearch","","true","2","true","","","","","","","","","","","","","","","","","","","","","","","","","","","","","","",""
"","","","","","html-button-response","102","402892","0.0-96.0","null","VisSearch","","VisSearch","","false","2","true","","","","","","","","","","","","","","","","","","","","","","","","","","","","","","",""
"","","","","","html-button-response","103","404119","0.0-97.0","1226.7999999998137","VisSearch","","VisSearch","","true","2","true","","","","","","","","","","","","","","","","","","","","","","","","","","","","","","",""
"","","","","","html-button-response","104","405775","0.0-98.0","1655.5","VisSearch","","VisSearch","","true","2","true","","","","","","","","","","","","","","","","","","","","","","","","","","","","","","",""
"","","","","","html-button-response","105","406738","0.0-99.0","962.5","VisSearch","","VisSearch","","true","2","true","","","","","","","","","","","","","","","","","","","","","","","","","","","","","","",""
"","","","","","html-button-response","106","408258","0.0-100.0","1519.5","VisSearch","","VisSearch","","true","2","true","","","","","","","","","","","","","","","","","","","","","","","","","","","","","","",""
"","","","","","html-button-response","107","410760","0.0-101.0","null","VisSearch","","VisSearch","","false","2","true","","","","","","","","","","","","","","","","","","","","","","","","","","","","","","",""
"","","","","","html-button-response","108","412426","0.0-102.0","1666.0999999996275","VisSearch","","VisSearch","","true","2","true","","","","","","","","","","","","","","","","","","","","","","","","","","","","","","",""
"","","","","","html-button-response","109","413386","0.0-103.0","959.5","VisSearch","","VisSearch","","true","2","true","","","","","","","","","","","","","","","","","","","","","","","","","","","","","","",""
"","","","","","html-button-response","110","415891","0.0-104.0","null","VisSearch","","VisSearch","","false","2","true","","","","","","","","","","","","","","","","","","","","","","","","","","","","","","",""
"","","","","","html-keyboard-response","111","415896","0.0-105.0","null","","null","","","","","","","","","","","","vissearch-summary-calculation","0.7","1448.8428571427773","","","","","","","","","","","","","","","","","","","","","",""
"","","","","","html-button-response","112","418425","0.0-106.0","2528","DSB_instruct","0","DSB_instruct","","","","","","","","","","","","","","","","","","","","","","","","","","","","","","","","","","",""
"","","","","","html-keyboard-response","113","427452","0.0-107.0","","DSB","","DSB 55689712","","","","","[5,5,6,8,9,7,1,2]","8","21798655","","","","","","","","","","","","","","","","","","","","","","","","","","","",""
"","","","","","html-button-response","114","435568","0.0-108.0","435946.7999999998","DSBrecall","21796543","DSBrecall","","false","","","","","","8","4","0.5","","","","","","","","","","","","","","","","","","","","","","","","",""
"","","","","","dsb-summary-calculation","115","435569","0.0-109.0","null","","null","","","","","","","","","","","","","","","0","0","0.5","435946.7999999998","","","","","","","","","","","","","","","","","",""
"","","","","","html-button-response","116","436877","0.0-110.0","1308","image_instruct","0","image_instruct","","","","","","","","","","","","","","","","","","","","","","","","","","","","","","","","","","",""
"","","","","","html-keyboard-response","117","451880","0.0-111.0","null","img5","null","img5","","","","","","","","","","","","","","","","","","2","1","","","","","","","","","","","","","","","",""
"","","","","","html-button-response","118","453433","0.0-112.0","1552","DSB_instruct","0","DSB_instruct","","","","","","","","","","","","","","","","","","","","","","","","","","","","","","","","","","",""
"","","","","","html-keyboard-response","119","462481","0.0-113.0","","DSB","","DSB 69936414","","","","","[6,9,9,3,6,4,1,4]","8","41463996","","","","","","","","","","","","","","","","","","","","","","","","","","","",""
"","","","","","html-button-response","120","489458","0.0-114.0","489836.7999999998","DSBrecall","14164523","DSBrecall","","false","","","","","","8","1","0.125","","","","","","","","","","","","","","","","","","","","","","","","",""
"","","","","","dsb-summary-calculation","121","489459","0.0-115.0","null","","null","","","","","","","","","","","","","","","","","","","","","0","0","0.125","489836.7999999998","","","","","","","","","","","",""
"","","","","","consolidated-trial-data","122","489459","0.0-116.0","null","consolidated-trial-data","null","consolidated-trial-data","","","","","","","","","","","","","","0","0","0.5","","2","1","0","0","0.125","","0","2","39","2","1448.8428571427773","0.7","5","","","","",""
"","","","","","html-button-response","123","499637","0.0-117.0","10178","block message","0","","","","","","","","","","","","","","","","","","","","","","","","","","","","","","","","","","","",""
"","","","","","html-button-response","124","500929","0.0-118.0","1291","VS_instruct","0","VS_instruct","","","","","","","","","","","","","","","","","","","","","","","","","","","","","","","","","","",""
"","","","","","html-button-response","125","503231","0.0-119.0","2301.199999999255","VisSearch","","VisSearch","","true","2","true","","","","","","","","","","","","","","","","","","","","","","","","","","","","","","",""
"","","","","","html-button-response","126","505735","0.0-120.0","null","VisSearch","","VisSearch","","false","2","true","","","","","","","","","","","","","","","","","","","","","","","","","","","","","","",""
"","","","","","html-button-response","127","507948","0.0-121.0","2212.5999999996275","VisSearch","","VisSearch","","true","2","true","","","","","","","","","","","","","","","","","","","","","","","","","","","","","","",""
"","","","","","html-button-response","128","509566","0.0-122.0","1617.5","VisSearch","","VisSearch","","true","2","true","","","","","","","","","","","","","","","","","","","","","","","","","","","","","","",""
"","","","","","html-button-response","129","511193","0.0-123.0","1626.5999999996275","VisSearch","","VisSearch","","true","2","true","","","","","","","","","","","","","","","","","","","","","","","","","","","","","","",""
"","","","","","html-button-response","130","512700","0.0-124.0","1506.7000000001863","VisSearch","","VisSearch","","true","2","true","","","","","","","","","","","","","","","","","","","","","","","","","","","","","","",""
"","","","","","html-button-response","131","514671","0.0-125.0","1970.5","VisSearch","","VisSearch","","true","2","true","","","","","","","","","","","","","","","","","","","","","","","","","","","","","","",""
"","","","","","html-button-response","132","516144","0.0-126.0","1472.5","VisSearch","","VisSearch","","true","2","true","","","","","","","","","","","","","","","","","","","","","","","","","","","","","","",""
"","","","","","html-button-response","133","518645","0.0-127.0","null","VisSearch","","VisSearch","","false","2","true","","","","","","","","","","","","","","","","","","","","","","","","","","","","","","",""
"","","","","","html-button-response","134","520295","0.0-128.0","1649.5999999996275","VisSearch","","VisSearch","","true","2","true","","","","","","","","","","","","","","","","","","","","","","","","","","","","","","",""
"","","","","","html-keyboard-response","135","520298","0.0-129.0","null","","null","","","","","","","","","","","","vissearch-summary-calculation","0.8","1794.6499999997905","","","","","","","","","","","","","","","","","","","","","",""
"","","","","","html-button-response","136","525338","0.0-130.0","5039","DSB_instruct","0","DSB_instruct","","","","","","","","","","","","","","","","","","","","","","","","","","","","","","","","","","",""
"","","","","","html-keyboard-response","137","534386","0.0-131.0","","DSB","","DSB 25739941","","","","","[2,5,7,3,9,9,4,1]","8","14993752","","","","","","","","","","","","","","","","","","","","","","","","","","","",""
"","","","","","html-button-response","138","542469","0.0-132.0","542847.7999999998","DSBrecall","14993752","DSBrecall","","true","","","","","","8","8","1","","","","","","","","","","","","","","","","","","","","","","","","",""
"","","","","","dsb-summary-calculation","139","542477","0.0-133.0","null","","null","","","","","","","","","","","","","","","1","8","1","542847.7999999998","","","","","","","","","","","","","","","","","",""
"","","","","","html-button-response","140","546791","0.0-134.0","4313","image_instruct","0","image_instruct","","","","","","","","","","","","","","","","","","","","","","","","","","","","","","","","","","",""
"","","","","","html-keyboard-response","141","561796","0.0-135.0","null","img1","null","img1","","","","","","","","","","","","","","","","","","1","1","","","","","","","","","","","","","","","",""
"","","","","","html-button-response","142","564252","0.0-136.0","2455","DSB_instruct","0","DSB_instruct","","","","","","","","","","","","","","","","","","","","","","","","","","","","","","","","","","",""
"","","","","","html-keyboard-response","143","573279","0.0-137.0","","DSB","","DSB 99734915","","","","","[9,9,7,3,4,9,1,5]","8","51943799","","","","","","","","","","","","","","","","","","","","","","","","","","","",""
"","","","","","html-button-response","144","591428","0.0-138.0","591807","DSBrecall","51943678","DSBrecall","","false","","","","","","8","5","0.625","","","","","","","","","","","","","","","","","","","","","","","","",""
"","","","","","dsb-summary-calculation","145","591429","0.0-139.0","null","","null","","","","","","","","","","","","","","","","","","","","","0","0","0.625","591807","","","","","","","","","","","",""
"","","","","","consolidated-trial-data","146","591429","0.0-140.0","null","consolidated-trial-data","null","consolidated-trial-data","","","","","","","","","","","","","","1","8","1","","1","1","0","0","0.625","","0","3","39","2","1794.6499999997905","0.8","1","","","","",""
"","","","","","html-button-response","147","592678","0.0-141.0","1248","block message","0","","","","","","","","","","","","","","","","","","","","","","","","","","","","","","","","","","","",""
"","","","","","html-button-response","148","594196","0.0-142.0","1517","VS_instruct","0","VS_instruct","","","","","","","","","","","","","","","","","","","","","","","","","","","","","","","","","","",""
"","","","","","html-button-response","149","595729","0.0-143.0","1533","VisSearch","","VisSearch","","true","2","true","","","","","","","","","","","","","","","","","","","","","","","","","","","","","","",""
"","","","","","html-button-response","150","597746","0.0-144.0","2016.5","VisSearch","","VisSearch","","true","2","true","","","","","","","","","","","","","","","","","","","","","","","","","","","","","","",""
"","","","","","html-button-response","151","598998","0.0-145.0","1251.5","VisSearch","","VisSearch","","true","2","true","","","","","","","","","","","","","","","","","","","","","","","","","","","","","","",""
"","","","","","html-button-response","152","600155","0.0-146.0","1156.5","VisSearch","","VisSearch","","true","2","true","","","","","","","","","","","","","","","","","","","","","","","","","","","","","","",""
"","","","","","html-button-response","153","602249","0.0-147.0","2093.699999999255","VisSearch","","VisSearch","","true","2","true","","","","","","","","","","","","","","","","","","","","","","","","","","","","","","",""
"","","","","","html-button-response","154","603555","0.0-148.0","1305.5","VisSearch","","VisSearch","","true","2","true","","","","","","","","","","","","","","","","","","","","","","","","","","","","","","",""
"","","","","","html-button-response","155","606028","0.0-149.0","2472.5999999996275","VisSearch","","VisSearch","","true","2","true","","","","","","","","","","","","","","","","","","","","","","","","","","","","","","",""
"","","","","","html-button-response","156","608272","0.0-150.0","2243.4000000003725","VisSearch","","VisSearch","","true","2","true","","","","","","","","","","","","","","","","","","","","","","","","","","","","","","",""
"","","","","","html-button-response","157","610774","0.0-151.0","null","VisSearch","","VisSearch","","false","2","true","","","","","","","","","","","","","","","","","","","","","","","","","","","","","","",""
"","","","","","html-button-response","158","612790","0.0-152.0","2015.5","VisSearch","","VisSearch","","true","2","true","","","","","","","","","","","","","","","","","","","","","","","","","","","","","","",""
"","","","","","html-keyboard-response","159","612796","0.0-153.0","null","","null","","","","","","","","","","","","vissearch-summary-calculation","0.9","1787.577777777695","","","","","","","","","","","","","","","","","","","","","",""
"","","","","","html-button-response","160","614140","0.0-154.0","1343","DSB_instruct","0","DSB_instruct","","","","","","","","","","","","","","","","","","","","","","","","","","","","","","","","","","",""
"","","","","","html-keyboard-response","161","623216","0.0-155.0","","DSB","","DSB 37037065","","","","","[3,7,0,3,7,0,6,5]","8","56073073","","","","","","","","","","","","","","","","","","","","","","","","","","","",""
"","","","","","html-button-response","162","634763","0.0-156.0","635141.8999999994","DSBrecall","56073415","DSBrecall","","false","","","","","","8","5","0.625","","","","","","","","","","","","","","","","","","","","","","","","",""
"","","","","","dsb-summary-calculation","163","634764","0.0-157.0","null","","null","","","","","","","","","","","","","","","0","0","0.625","635141.8999999994","","","","","","","","","","","","","","","","","",""
"","","","","","html-button-response","164","635774","0.0-158.0","1009","image_instruct","0","image_instruct","","","","","","","","","","","","","","","","","","","","","","","","","","","","","","","","","","",""
"","","","","","html-keyboard-response","165","650787","0.0-159.0","null","img2","null","img2","","","","","","","","","","","","","","","","","","2","2","","","","","","","","","","","","","","","",""
"","","","","","html-button-response","166","653370","0.0-160.0","2582","DSB_instruct","0","DSB_instruct","","","","","","","","","","","","","","","","","","","","","","","","","","","","","","","","","","",""
"","","","","","html-keyboard-response","167","662455","0.0-161.0","","DSB","","DSB 07355646","","","","","[0,7,3,5,5,6,4,6]","8","64655370","","","","","","","","","","","","","","","","","","","","","","","","","","","",""
"","","","","","html-button-response","168","674639","0.0-162.0","675017.7999999998","DSBrecall","64670154","DSBrecall","","false","","","","","","8","3","0.375","","","","","","","","","","","","","","","","","","","","","","","","",""
"","","","","","dsb-summary-calculation","169","674640","0.0-163.0","null","","null","","","","","","","","","","","","","","","","","","","","","0","0","0.375","675017.7999999998","","","","","","","","","","","",""
"","","","","","consolidated-trial-data","170","674640","0.0-164.0","null","consolidated-trial-data","null","consolidated-trial-data","","","","","","","","","","","","","","0","0","0.625","","2","2","0","0","0.375","","0","4","39","2","1787.577777777695","0.9","2","","","","",""
"","","","","","html-button-response","171","675730","0.0-165.0","1090","block message","0","","","","","","","","","","","","","","","","","","","","","","","","","","","","","","","","","","","",""
"","","","","","html-button-response","172","677275","0.0-166.0","1545","VS_instruct","0","VS_instruct","","","","","","","","","","","","","","","","","","","","","","","","","","","","","","","","","","",""
"","","","","","html-button-response","173","679776","0.0-167.0","null","VisSearch","","VisSearch","","false","2","true","","","","","","","","","","","","","","","","","","","","","","","","","","","","","","",""
"","","","","","html-button-response","174","681981","0.0-168.0","2204.600000000559","VisSearch","","VisSearch","","true","2","true","","","","","","","","","","","","","","","","","","","","","","","","","","","","","","",""
"","","","","","html-button-response","175","683548","0.0-169.0","1566.300000000745","VisSearch","","VisSearch","","true","2","true","","","","","","","","","","","","","","","","","","","","","","","","","","","","","","",""
"","","","","","html-button-response","176","685092","0.0-170.0","1543.7000000001863","VisSearch","","VisSearch","","true","2","true","","","","","","","","","","","","","","","","","","","","","","","","","","","","","","",""
"","","","","","html-button-response","177","687595","0.0-171.0","null","VisSearch","","VisSearch","","false","2","true","","","","","","","","","","","","","","","","","","","","","","","","","","","","","","",""
"","","","","","html-button-response","178","690098","0.0-172.0","null","VisSearch","","VisSearch","","false","2","true","","","","","","","","","","","","","","","","","","","","","","","","","","","","","","",""
"","","","","","html-button-response","179","691864","0.0-173.0","1765.5","VisSearch","","VisSearch","","true","2","true","","","","","","","","","","","","","","","","","","","","","","","","","","","","","","",""
"","","","","","html-button-response","180","693393","0.0-174.0","1528.5","VisSearch","","VisSearch","","true","2","true","","","","","","","","","","","","","","","","","","","","","","","","","","","","","","",""
"","","","","","html-button-response","181","694644","0.0-175.0","1250.3999999994412","VisSearch","","VisSearch","","true","2","true","","","","","","","","","","","","","","","","","","","","","","","","","","","","","","",""
"","","","","","html-button-response","182","697120","0.0-176.0","2475.5","VisSearch","","VisSearch","","true","2","true","","","","","","","","","","","","","","","","","","","","","","","","","","","","","","",""
"","","","","","html-keyboard-response","183","697122","0.0-177.0","null","","null","","","","","","","","","","","","vissearch-summary-calculation","0.7","1762.0714285715617","","","","","","","","","","","","","","","","","","","","","",""
"","","","","","html-button-response","184","698184","0.0-178.0","1062","DSB_instruct","0","DSB_instruct","","","","","","","","","","","","","","","","","","","","","","","","","","","","","","","","","","",""
"","","","","","html-keyboard-response","185","707249","0.0-179.0","","DSB","","DSB 53172029","","","","","[5,3,1,7,2,0,2,9]","8","92027135","","","","","","","","","","","","","","","","","","","","","","","","","","","",""
"","","","","","html-button-response","186","725011","0.0-180.0","725389.8999999994","DSBrecall","92021564","DSBrecall","","false","","","","","","8","4","0.5","","","","","","","","","","","","","","","","","","","","","","","","",""
"","","","","","dsb-summary-calculation","187","725012","0.0-181.0","null","","null","","","","","","","","","","","","","","","0","0","0.5","725389.8999999994","","","","","","","","","","","","","","","","","",""
"","","","","","html-button-response","188","726310","0.0-182.0","1297","image_instruct","0","image_instruct","","","","","","","","","","","","","","","","","","","","","","","","","","","","","","","","","","",""
"","","","","","html-keyboard-response","189","741312","0.0-183.0","null","img10","null","img10","","","","","","","","","","","","","","","","","","null","null","","","","","","","","","","","","","","","",""
"","","","","","html-button-response","190","743966","0.0-184.0","2653","DSB_instruct","0","DSB_instruct","","","","","","","","","","","","","","","","","","","","","","","","","","","","","","","","","","",""
"","","","","","html-keyboard-response","191","752994","0.0-185.0","","DSB","","DSB 10909213","","","","","[1,0,9,0,9,2,1,3]","8","31290901","","","","","","","","","","","","","","","","","","","","","","","","","","","",""
"","","","","","html-button-response","192","761422","0.0-186.0","761800.7999999998","DSBrecall","90132056","DSBrecall","","false","","","","","","8","0","0","","","","","","","","","","","","","","","","","","","","","","","","",""
"","","","","","dsb-summary-calculation","193","761423","0.0-187.0","null","","null","","","","","","","","","","","","","","","","","","","","","0","0","0","761800.7999999998","","","","","","","","","","","",""
"","","","","","consolidated-trial-data","194","761423","0.0-188.0","null","consolidated-trial-data","null","consolidated-trial-data","","","","","","","","","","","","","","0","0","0.5","","null","null","0","0","0","","0","5","39","2","1762.0714285715617","0.7","10","","","","",""
"","","","","","html-button-response","195","762717","0.0-189.0","1293","block message","0","","","","","","","","","","","","","","","","","","","","","","","","","","","","","","","","","","","",""
"","","","","","html-button-response","196","763722","0.0-190.0","1005","VS_instruct","0","VS_instruct","","","","","","","","","","","","","","","","","","","","","","","","","","","","","","","","","","",""
"","","","","","html-button-response","197","766226","0.0-191.0","null","VisSearch","","VisSearch","","false","2","true","","","","","","","","","","","","","","","","","","","","","","","","","","","","","","",""
"","","","","","html-button-response","198","768727","0.0-192.0","null","VisSearch","","VisSearch","","false","2","true","","","","","","","","","","","","","","","","","","","","","","","","","","","","","","",""
"","","","","","html-button-response","199","770695","0.0-193.0","1967.7999999998137","VisSearch","","VisSearch","","true","2","true","","","","","","","","","","","","","","","","","","","","","","","","","","","","","","",""
"","","","","","html-button-response","200","773198","0.0-194.0","null","VisSearch","","VisSearch","","false","2","true","","","","","","","","","","","","","","","","","","","","","","","","","","","","","","",""
"","","","","","html-button-response","201","775698","0.0-195.0","null","VisSearch","","VisSearch","","false","2","true","","","","","","","","","","","","","","","","","","","","","","","","","","","","","","",""
"","","","","","html-button-response","202","777381","0.0-196.0","1682.2999999998137","VisSearch","","VisSearch","","true","2","true","","","","","","","","","","","","","","","","","","","","","","","","","","","","","","",""
"","","","","","html-button-response","203","778235","0.0-197.0","853.5","VisSearch","","VisSearch","","true","2","true","","","","","","","","","","","","","","","","","","","","","","","","","","","","","","",""
"","","","","","html-button-response","204","780292","0.0-198.0","2056.5","VisSearch","","VisSearch","","true","2","true","","","","","","","","","","","","","","","","","","","","","","","","","","","","","","",""
"","","","","","html-button-response","205","781679","0.0-199.0","1386.5999999996275","VisSearch","","VisSearch","","true","2","true","","","","","","","","","","","","","","","","","","","","","","","","","","","","","","",""
"","","","","","html-button-response","206","783131","0.0-200.0","1451.5","VisSearch","","VisSearch","","true","2","true","","","","","","","","","","","","","","","","","","","","","","","","","","","","","","",""
"","","","","","html-keyboard-response","207","783135","0.0-201.0","null","","null","","","","","","","","","","","","vissearch-summary-calculation","0.6","1566.3666666665424","","","","","","","","","","","","","","","","","","","","","",""
"","","","","","html-button-response","208","784389","0.0-202.0","1254","DSB_instruct","0","DSB_instruct","","","","","","","","","","","","","","","","","","","","","","","","","","","","","","","","","","",""
"","","","","","html-keyboard-response","209","793450","0.0-203.0","","DSB","","DSB 08344534","","","","","[0,8,3,4,4,5,3,4]","8","43544380","","","","","","","","","","","","","","","","","","","","","","","","","","","",""
"","","","","","html-button-response","210","802849","0.0-204.0","803227.7000000002","DSBrecall","43546789","DSBrecall","","false","","","","","","8","5","0.625","","","","","","","","","","","","","","","","","","","","","","","","",""
"","","","","","dsb-summary-calculation","211","802850","0.0-205.0","null","","null","","","","","","","","","","","","","","","0","0","0.625","803227.7000000002","","","","","","","","","","","","","","","","","",""
"","","","","","html-button-response","212","804088","0.0-206.0","1238","image_instruct","0","image_instruct","","","","","","","","","","","","","","","","","","","","","","","","","","","","","","","","","","",""
"","","","","","html-keyboard-response","213","819101","0.0-207.0","null","img3","null","img3","","","","","","","","","","","","","","","","","","3","2","","","","","","","","","","","","","","","",""
"","","","","","html-button-response","214","820297","0.0-208.0","1195","DSB_instruct","0","DSB_instruct","","","","","","","","","","","","","","","","","","","","","","","","","","","","","","","","","","",""
"","","","","","html-keyboard-response","215","829363","0.0-209.0","","DSB","","DSB 03429784","","","","","[0,3,4,2,9,7,8,4]","8","48792430","","","","","","","","","","","","","","","","","","","","","","","","","","","",""
"","","","","","html-button-response","216","841183","0.0-210.0","841561.8999999994","DSBrecall","48792365","DSBrecall","","false","","","","","","8","5","0.625","","","","","","","","","","","","","","","","","","","","","","","","",""
"","","","","","dsb-summary-calculation","217","841184","0.0-211.0","null","","null","","","","","","","","","","","","","","","","","","","","","0","0","0.625","841561.8999999994","","","","","","","","","","","",""
"","","","","","consolidated-trial-data","218","841184","0.0-212.0","null","consolidated-trial-data","null","consolidated-trial-data","","","","","","","","","","","","","","0","0","0.625","","3","2","0","0","0.625","","0","6","39","2","1566.3666666665424","0.6","3","","","","",""
"","","","","","html-button-response","219","843266","0.0-213.0","2081","attncheck","1","attncheck","","","","","","","","","","","","","","","","","","","","","","","","","","","","","","","true","Continue","","",""
"","","","","","html-button-response","220","846133","0.0-214.0","2866","block message","0","","","","","","","","","","","","","","","","","","","","","","","","","","","","","","","","","","","",""
"","","","","","html-button-response","221","847349","0.0-215.0","1215","VS_instruct","0","VS_instruct","","","","","","","","","","","","","","","","","","","","","","","","","","","","","","","","","","",""
"","","","","","html-button-response","222","849364","0.0-216.0","2015.0999999996275","VisSearch","","VisSearch","","true","2","true","","","","","","","","","","","","","","","","","","","","","","","","","","","","","","",""
"","","","","","html-button-response","223","851596","0.0-217.0","2231.2999999998137","VisSearch","","VisSearch","","true","2","true","","","","","","","","","","","","","","","","","","","","","","","","","","","","","","",""
"","","","","","html-button-response","224","854098","0.0-218.0","null","VisSearch","","VisSearch","","false","2","true","","","","","","","","","","","","","","","","","","","","","","","","","","","","","","",""
"","","","","","html-button-response","225","856030","0.0-219.0","1931.7000000001863","VisSearch","","VisSearch","","true","2","true","","","","","","","","","","","","","","","","","","","","","","","","","","","","","","",""
"","","","","","html-button-response","226","857942","0.0-220.0","1911.5","VisSearch","","VisSearch","","true","2","true","","","","","","","","","","","","","","","","","","","","","","","","","","","","","","",""
"","","","","","html-button-response","227","858944","0.0-221.0","1001.5999999996275","VisSearch","","VisSearch","","true","2","true","","","","","","","","","","","","","","","","","","","","","","","","","","","","","","",""
"","","","","","html-button-response","228","860815","0.0-222.0","1870.4000000003725","VisSearch","","VisSearch","","true","2","true","","","","","","","","","","","","","","","","","","","","","","","","","","","","","","",""
"","","","","","html-button-response","229","862399","0.0-223.0","1583.5","VisSearch","","VisSearch","","true","2","true","","","","","","","","","","","","","","","","","","","","","","","","","","","","","","",""
"","","","","","html-button-response","230","864345","0.0-224.0","1945.699999999255","VisSearch","","VisSearch","","true","2","true","","","","","","","","","","","","","","","","","","","","","","","","","","","","","","",""
"","","","","","html-button-response","231","866066","0.0-225.0","1720.5","VisSearch","","VisSearch","","true","2","true","","","","","","","","","","","","","","","","","","","","","","","","","","","","","","",""
"","","","","","html-keyboard-response","232","866071","0.0-226.0","null","","null","","","","","","","","","","","","vissearch-summary-calculation","0.9","1801.2555555554313","","","","","","","","","","","","","","","","","","","","","",""
"","","","","","html-button-response","233","867263","0.0-227.0","1192","DSB_instruct","0","DSB_instruct","","","","","","","","","","","","","","","","","","","","","","","","","","","","","","","","","","",""
"","","","","","html-keyboard-response","234","876285","0.0-228.0","","DSB","","DSB 46470898","","","","","[4,6,4,7,0,8,9,8]","8","89807464","","","","","","","","","","","","","","","","","","","","","","","","","","","",""
"","","","","","html-button-response","235","884198","0.0-229.0","884576.7000000002","DSBrecall","54368709","DSBrecall","","false","","","","","","8","0","0","","","","","","","","","","","","","","","","","","","","","","","","",""
"","","","","","dsb-summary-calculation","236","884202","0.0-230.0","null","","null","","","","","","","","","","","","","","","0","0","0","884576.7000000002","","","","","","","","","","","","","","","","","",""
"","","","","","html-button-response","237","885286","0.0-231.0","1084","image_instruct","0","image_instruct","","","","","","","","","","","","","","","","","","","","","","","","","","","","","","","","","","",""
"","","","","","html-keyboard-response","238","900289","0.0-232.0","null","img8","null","img8","","","","","","","","","","","","","","","","","","2","2","","","","","","","","","","","","","","","",""
"","","","","","html-button-response","239","903433","0.0-233.0","3144","DSB_instruct","0","DSB_instruct","","","","","","","","","","","","","","","","","","","","","","","","","","","","","","","","","","",""
"","","","","","html-keyboard-response","240","912472","0.0-234.0","","DSB","","DSB 63587164","","","","","[6,3,5,8,7,1,6,4]","8","46178536","","","","","","","","","","","","","","","","","","","","","","","","","","","",""
"","","","","","html-button-response","241","928216","0.0-235.0","928594.8999999994","DSBrecall","46712367","DSBrecall","","false","","","","","","8","2","0.25","","","","","","","","","","","","","","","","","","","","","","","","",""
"","","","","","dsb-summary-calculation","242","928217","0.0-236.0","null","","null","","","","","","","","","","","","","","","","","","","","","0","0","0.25","928594.8999999994","","","","","","","","","","","",""
"","","","","","consolidated-trial-data","243","928217","0.0-237.0","null","consolidated-trial-data","null","consolidated-trial-data","","","","","","","","","","","","","","0","0","0","","2","2","0","0","0.25","","0","7","39","2","1801.2555555554313","0.9","8","","","","",""
"","","","","","html-button-response","244","932186","0.0-238.0","3968","attncheck","2","attncheck","","","","","","","","","","","","","","","","","","","","","","","","","","","","","","","true","Next","","",""
"","","","","","html-button-response","245","933697","0.0-239.0","1511","block message","0","","","","","","","","","","","","","","","","","","","","","","","","","","","","","","","","","","","",""
"","","","","","html-button-response","246","934352","0.0-240.0","654","VS_instruct","0","VS_instruct","","","","","","","","","","","","","","","","","","","","","","","","","","","","","","","","","","",""
"","","","","","html-button-response","247","935408","0.0-241.0","1055.0999999996275","VisSearch","","VisSearch","","true","2","true","","","","","","","","","","","","","","","","","","","","","","","","","","","","","","",""
"","","","","","html-button-response","248","936790","0.0-242.0","1381.5","VisSearch","","VisSearch","","true","2","true","","","","","","","","","","","","","","","","","","","","","","","","","","","","","","",""
"","","","","","html-button-response","249","938372","0.0-243.0","1581.4000000003725","VisSearch","","VisSearch","","true","2","true","","","","","","","","","","","","","","","","","","","","","","","","","","","","","","",""
"","","","","","html-button-response","250","939719","0.0-244.0","1346.5999999996275","VisSearch","","VisSearch","","true","2","true","","","","","","","","","","","","","","","","","","","","","","","","","","","","","","",""
"","","","","","html-button-response","251","941529","0.0-245.0","1809.5999999996275","VisSearch","","VisSearch","","true","2","true","","","","","","","","","","","","","","","","","","","","","","","","","","","","","","",""
"","","","","","html-button-response","252","942818","0.0-246.0","1288.4000000003725","VisSearch","","VisSearch","","true","2","true","","","","","","","","","","","","","","","","","","","","","","","","","","","","","","",""
"","","","","","html-button-response","253","945321","0.0-247.0","null","VisSearch","","VisSearch","","false","2","true","","","","","","","","","","","","","","","","","","","","","","","","","","","","","","",""
"","","","","","html-button-response","254","947261","0.0-248.0","1940.2000000001863","VisSearch","","VisSearch","","true","2","true","","","","","","","","","","","","","","","","","","","","","","","","","","","","","","",""
"","","","","","html-button-response","255","949700","0.0-249.0","2438.5","VisSearch","","VisSearch","","true","2","true","","","","","","","","","","","","","","","","","","","","","","","","","","","","","","",""
"","","","","","html-button-response","256","952202","0.0-250.0","null","VisSearch","","VisSearch","","false","2","true","","","","","","","","","","","","","","","","","","","","","","","","","","","","","","",""
"","","","","","html-keyboard-response","257","952208","0.0-251.0","null","","null","","","","","","","","","","","","vissearch-summary-calculation","0.8","1605.1624999999767","","","","","","","","","","","","","","","","","","","","","",""
"","","","","","html-button-response","258","953219","0.0-252.0","1011","DSB_instruct","0","DSB_instruct","","","","","","","","","","","","","","","","","","","","","","","","","","","","","","","","","","",""
"","","","","","html-keyboard-response","259","962259","0.0-253.0","","DSB","","DSB 69479729","","","","","[6,9,4,7,9,7,2,9]","8","92797496","","","","","","","","","","","","","","","","","","","","","","","","","","","",""
"","","","","","html-button-response","260","973388","0.0-254.0","973766.7999999998","DSBrecall","92797465","DSBrecall","","false","","","","","","8","6","0.75","","","","","","","","","","","","","","","","","","","","","","","","",""
"","","","","","dsb-summary-calculation","261","973389","0.0-255.0","null","","null","","","","","","","","","","","","","","","0","0","0.75","973766.7999999998","","","","","","","","","","","","","","","","","",""
"","","","","","html-button-response","262","974748","0.0-256.0","1359","image_instruct","0","image_instruct","","","","","","","","","","","","","","","","","","","","","","","","","","","","","","","","","","",""
"","","","","","html-keyboard-response","263","989755","0.0-257.0","null","img7","null","img7","","","","","","","","","","","","","","","","","","1","2","","","","","","","","","","","","","","","",""
"","","","","","html-button-response","264","992194","0.0-258.0","2439","DSB_instruct","0","DSB_instruct","","","","","","","","","","","","","","","","","","","","","","","","","","","","","","","","","","",""
"","","","","","html-keyboard-response","265","1001244","0.0-259.0","","DSB","","DSB 25869238","","","","","[2,5,8,6,9,2,3,8]","8","83296852","","","","","","","","","","","","","","","","","","","","","","","","","","","",""
"","","","","","html-button-response","266","1008249","0.0-260.0","1008627.5999999996","DSBrecall","97245657","DSBrecall","","false","","","","","","8","2","0.25","","","","","","","","","","","","","","","","","","","","","","","","",""
"","","","","","dsb-summary-calculation","267","1008250","0.0-261.0","null","","null","","","","","","","","","","","","","","","","","","","","","0","0","0.25","1008627.5999999996","","","","","","","","","","","",""
"","","","","","consolidated-trial-data","268","1008250","0.0-262.0","null","consolidated-trial-data","null","consolidated-trial-data","","","","","","","","","","","","","","0","0","0.75","","1","2","0","0","0.25","","0","8","39","2","1605.1624999999767","0.8","7","","","","",""
"","","","","","html-button-response","269","1011042","0.0-263.0","2791","block message","0","","","","","","","","","","","","","","","","","","","","","","","","","","","","","","","","","","","",""
"","","","","","html-button-response","270","1011905","0.0-264.0","862","VS_instruct","0","VS_instruct","","","","","","","","","","","","","","","","","","","","","","","","","","","","","","","","","","",""
"","","","","","html-button-response","271","1013023","0.0-265.0","1118","VisSearch","","VisSearch","","true","2","true","","","","","","","","","","","","","","","","","","","","","","","","","","","","","","",""
"","","","","","html-button-response","272","1014132","0.0-266.0","1108.4000000003725","VisSearch","","VisSearch","","true","2","true","","","","","","","","","","","","","","","","","","","","","","","","","","","","","","",""
"","","","","","html-button-response","273","1015744","0.0-267.0","1611.4000000003725","VisSearch","","VisSearch","","true","2","true","","","","","","","","","","","","","","","","","","","","","","","","","","","","","","",""
"","","","","","html-button-response","274","1016803","0.0-268.0","1058.5999999996275","VisSearch","","VisSearch","","true","2","true","","","","","","","","","","","","","","","","","","","","","","","","","","","","","","",""
"","","","","","html-button-response","275","1018099","0.0-269.0","1295.4000000003725","VisSearch","","VisSearch","","true","2","true","","","","","","","","","","","","","","","","","","","","","","","","","","","","","","",""
"","","","","","html-button-response","276","1020422","0.0-270.0","2322.5999999996275","VisSearch","","VisSearch","","true","2","true","","","","","","","","","","","","","","","","","","","","","","","","","","","","","","",""
"","","","","","html-button-response","277","1021723","0.0-271.0","1300.4000000003725","VisSearch","","VisSearch","","true","2","true","","","","","","","","","","","","","","","","","","","","","","","","","","","","","","",""
"","","","","","html-button-response","278","1024225","0.0-272.0","null","VisSearch","","VisSearch","","false","2","true","","","","","","","","","","","","","","","","","","","","","","","","","","","","","","",""
"","","","","","html-button-response","279","1025365","0.0-273.0","1139.7999999998137","VisSearch","","VisSearch","","true","2","true","","","","","","","","","","","","","","","","","","","","","","","","","","","","","","",""
"","","","","","html-button-response","280","1026708","0.0-274.0","1342.5999999996275","VisSearch","","VisSearch","","true","2","true","","","","","","","","","","","","","","","","","","","","","","","","","","","","","","",""
"","","","","","html-keyboard-response","281","1026709","0.0-275.0","null","","null","","","","","","","","","","","","vissearch-summary-calculation","0.9","1366.3555555555763","","","","","","","","","","","","","","","","","","","","","",""
"","","","","","html-button-response","282","1033647","0.0-276.0","6938","DSB_instruct","0","DSB_instruct","","","","","","","","","","","","","","","","","","","","","","","","","","","","","","","","","","",""
"","","","","","html-keyboard-response","283","1042689","0.0-277.0","","DSB","","DSB 21141293","","","","","[2,1,1,4,1,2,9,3]","8","39214112","","","","","","","","","","","","","","","","","","","","","","","","","","","",""
"","","","","","html-button-response","284","1054514","0.0-278.0","1054892.7000000002","DSBrecall","31294678","DSBrecall","","false","","","","","","8","3","0.375","","","","","","","","","","","","","","","","","","","","","","","","",""
"","","","","","dsb-summary-calculation","285","1054515","0.0-279.0","null","","null","","","","","","","","","","","","","","","0","0","0.375","1054892.7000000002","","","","","","","","","","","","","","","","","",""
"","","","","","html-button-response","286","1055682","0.0-280.0","1167","image_instruct","0","image_instruct","","","","","","","","","","","","","","","","","","","","","","","","","","","","","","","","","","",""
"","","","","","html-keyboard-response","287","1070695","0.0-281.0","null","img6","null","img6","","","","","","","","","","","","","","","","","","3","2","","","","","","","","","","","","","","","",""
"","","","","","html-button-response","288","1071829","0.0-282.0","1134","DSB_instruct","0","DSB_instruct","","","","","","","","","","","","","","","","","","","","","","","","","","","","","","","","","","",""
"","","","","","html-keyboard-response","289","1080925","0.0-283.0","","DSB","","DSB 27835683","","","","","[2,7,8,3,5,6,8,3]","8","38653872","","","","","","","","","","","","","","","","","","","","","","","","","","","",""
"","","","","","html-button-response","290","1087818","0.0-284.0","1088196.7999999998","DSBrecall","34568986","DSBrecall","","false","","","","","","8","1","0.125","","","","","","","","","","","","","","","","","","","","","","","","",""
"","","","","","dsb-summary-calculation","291","1087819","0.0-285.0","null","","null","","","","","","","","","","","","","","","","","","","","","0","0","0.125","1088196.7999999998","","","","","","","","","","","",""
"","","","","","consolidated-trial-data","292","1087820","0.0-286.0","null","consolidated-trial-data","null","consolidated-trial-data","","","","","","","","","","","","","","0","0","0.375","","3","2","0","0","0.125","","0","9","39","2","1366.3555555555763","0.9","6","","","","",""
"","","","","","html-button-response","293","1089209","0.0-287.0","1389","attncheck","2","attncheck","","","","","","","","","","","","","","","","","","","","","","","","","","","","","","","true","Next","","",""
"","","","","","html-button-response","294","1272876","0.0-288.0","183667","block message","0","","","","","","","","","","","","","","","","","","","","","","","","","","","","","","","","","","","",""
"","","","","","html-button-response","295","1273976","0.0-289.0","1100","VS_instruct","0","VS_instruct","","","","","","","","","","","","","","","","","","","","","","","","","","","","","","","","","","",""
"","","","","","html-button-response","296","1275200","0.0-290.0","1223.2000000001863","VisSearch","","VisSearch","","true","1","true","","","","","","","","","","","","","","","","","","","","","","","","","","","","","","",""
"","","","","","html-button-response","297","1276222","0.0-291.0","1021.2000000001863","VisSearch","","VisSearch","","true","1","true","","","","","","","","","","","","","","","","","","","","","","","","","","","","","","",""
"","","","","","html-button-response","298","1277150","0.0-292.0","927.6000000005588","VisSearch","","VisSearch","","true","1","true","","","","","","","","","","","","","","","","","","","","","","","","","","","","","","",""
"","","","","","html-button-response","299","1278128","0.0-293.0","977.4000000003725","VisSearch","","VisSearch","","true","1","true","","","","","","","","","","","","","","","","","","","","","","","","","","","","","","",""
"","","","","","html-button-response","300","1279021","0.0-294.0","892.5","VisSearch","","VisSearch","","true","1","true","","","","","","","","","","","","","","","","","","","","","","","","","","","","","","",""
"","","","","","html-button-response","301","1279791","0.0-295.0","769.5","VisSearch","","VisSearch","","true","1","true","","","","","","","","","","","","","","","","","","","","","","","","","","","","","","",""
"","","","","","html-button-response","302","1280586","0.0-296.0","794.6000000005588","VisSearch","","VisSearch","","true","1","true","","","","","","","","","","","","","","","","","","","","","","","","","","","","","","",""
"","","","","","html-button-response","303","1281351","0.0-297.0","764.5","VisSearch","","VisSearch","","true","1","true","","","","","","","","","","","","","","","","","","","","","","","","","","","","","","",""
"","","","","","html-button-response","304","1283491","0.0-298.0","2139.5999999996275","VisSearch","","VisSearch","","true","1","true","","","","","","","","","","","","","","","","","","","","","","","","","","","","","","",""
"","","","","","html-button-response","305","1285143","0.0-299.0","1651.5","VisSearch","","VisSearch","","true","1","true","","","","","","","","","","","","","","","","","","","","","","","","","","","","","","",""
"","","","","","html-keyboard-response","306","1285144","0.0-300.0","null","","null","","","","","","","","","","","","vissearch-summary-calculation","1","1116.160000000149","","","","","","","","","","","","","","","","","","","","","",""
"","","","","","html-button-response","307","1286437","0.0-301.0","1293","DSB_instruct","0","DSB_instruct","","","","","","","","","","","","","","","","","","","","","","","","","","","","","","","","","","",""
"","","","","","html-keyboard-response","308","1295493","0.0-302.0","","DSB","","DSB 71557356","","","","","[7,1,5,5,7,3,5,6]","8","65375517","","","","","","","","","","","","","","","","","","","","","","","","","","","",""
"","","","","","html-button-response","309","1306722","0.0-303.0","1307100.7999999998","DSBrecall","65375175","DSBrecall","","false","","","","","","8","5","0.625","","","","","","","","","","","","","","","","","","","","","","","","",""
"","","","","","dsb-summary-calculation","310","1306723","0.0-304.0","null","","null","","","","","","","","","","","","","","","0","0","0.625","1307100.7999999998","","","","","","","","","","","","","","","","","",""
"","","","","","html-button-response","311","1313146","0.0-305.0","6423","image_instruct","0","image_instruct","","","","","","","","","","","","","","","","","","","","","","","","","","","","","","","","","","",""
"","","","","","html-keyboard-response","312","1328147","0.0-306.0","null","img9","null","img9","","","","","","","","","","","","","","","","","","3","1","","","","","","","","","","","","","","","",""
"","","","","","html-button-response","313","1331741","0.0-307.0","3594","DSB_instruct","0","DSB_instruct","","","","","","","","","","","","","","","","","","","","","","","","","","","","","","","","","","",""
"","","","","","html-keyboard-response","314","1340787","0.0-308.0","","DSB","","DSB 93437596","","","","","[9,3,4,3,7,5,9,6]","8","69573439","","","","","","","","","","","","","","","","","","","","","","","","","","","",""
"","","","","","html-button-response","315","1348730","0.0-309.0","1349108.8999999994","DSBrecall","79564325","DSBrecall","","false","","","","","","8","2","0.25","","","","","","","","","","","","","","","","","","","","","","","","",""
"","","","","","dsb-summary-calculation","316","1348731","0.0-310.0","null","","null","","","","","","","","","","","","","","","","","","","","","0","0","0.25","1349108.8999999994","","","","","","","","","","","",""
"","","","","","consolidated-trial-data","317","1348731","0.0-311.0","null","consolidated-trial-data","null","consolidated-trial-data","","","","","","","","","","","","","","0","0","0.625","","3","1","0","0","0.25","","1","0","39","1","1116.160000000149","1","9","","","","",""
"","","","","","html-button-response","318","1349912","0.0-312.0","1181","block message","0","","","","","","","","","","","","","","","","","","","","","","","","","","","","","","","","","","","",""
"","","","","","html-button-response","319","1352134","0.0-313.0","2222","VS_instruct","0","VS_instruct","","","","","","","","","","","","","","","","","","","","","","","","","","","","","","","","","","",""
"","","","","","html-button-response","320","1354637","0.0-314.0","null","VisSearch","","VisSearch","","false","1","true","","","","","","","","","","","","","","","","","","","","","","","","","","","","","","",""
"","","","","","html-button-response","321","1355814","0.0-315.0","1177","VisSearch","","VisSearch","","true","1","true","","","","","","","","","","","","","","","","","","","","","","","","","","","","","","",""
"","","","","","html-button-response","322","1356911","0.0-316.0","1096.5","VisSearch","","VisSearch","","true","1","true","","","","","","","","","","","","","","","","","","","","","","","","","","","","","","",""
"","","","","","html-button-response","323","1357989","0.0-317.0","1077.5","VisSearch","","VisSearch","","true","1","true","","","","","","","","","","","","","","","","","","","","","","","","","","","","","","",""
"","","","","","html-button-response","324","1358868","0.0-318.0","878.4000000003725","VisSearch","","VisSearch","","true","1","true","","","","","","","","","","","","","","","","","","","","","","","","","","","","","","",""
"","","","","","html-button-response","325","1359775","0.0-319.0","906.7000000001863","VisSearch","","VisSearch","","true","1","true","","","","","","","","","","","","","","","","","","","","","","","","","","","","","","",""
"","","","","","html-button-response","326","1360938","0.0-320.0","1162.4000000003725","VisSearch","","VisSearch","","true","1","true","","","","","","","","","","","","","","","","","","","","","","","","","","","","","","",""
"","","","","","html-button-response","327","1362008","0.0-321.0","1069.6000000005588","VisSearch","","VisSearch","","true","1","true","","","","","","","","","","","","","","","","","","","","","","","","","","","","","","",""
"","","","","","html-button-response","328","1362964","0.0-322.0","955.5","VisSearch","","VisSearch","","true","1","true","","","","","","","","","","","","","","","","","","","","","","","","","","","","","","",""
"","","","","","html-button-response","329","1363956","0.0-323.0","991.6000000005588","VisSearch","","VisSearch","","true","1","true","","","","","","","","","","","","","","","","","","","","","","","","","","","","","","",""
"","","","","","html-keyboard-response","330","1363962","0.0-324.0","null","","null","","","","","","","","","","","","vissearch-summary-calculation","0.9","1035.02222222245","","","","","","","","","","","","","","","","","","","","","",""
"","","","","","html-button-response","331","1365191","0.0-325.0","1228","DSB_instruct","0","DSB_instruct","","","","","","","","","","","","","","","","","","","","","","","","","","","","","","","","","","",""
"","","","","","html-keyboard-response","332","1374232","0.0-326.0","","DSB","","DSB 17391371","","","","","[1,7,3,9,1,3,7,1]","8","17319371","","","","","","","","","","","","","","","","","","","","","","","","","","","",""
"","","","","","html-button-response","333","1380080","0.0-327.0","1380458.5999999996","DSBrecall","13714568","DSBrecall","","false","","","","","","8","2","0.25","","","","","","","","","","","","","","","","","","","","","","","","",""
"","","","","","dsb-summary-calculation","334","1380081","0.0-328.0","null","","null","","","","","","","","","","","","","","","0","0","0.25","1380458.5999999996","","","","","","","","","","","","","","","","","",""
"","","","","","html-button-response","335","1381027","0.0-329.0","946","image_instruct","0","image_instruct","","","","","","","","","","","","","","","","","","","","","","","","","","","","","","","","","","",""
"","","","","","html-keyboard-response","336","1396028","0.0-330.0","null","img3","null","img3","","","","","","","","","","","","","","","","","","3","2","","","","","","","","","","","","","","","",""
"","","","","","html-button-response","337","1397239","0.0-331.0","1210","DSB_instruct","0","DSB_instruct","","","","","","","","","","","","","","","","","","","","","","","","","","","","","","","","","","",""
"","","","","","html-keyboard-response","338","1406290","0.0-332.0","","DSB","","DSB 76617128","","","","","[7,6,6,1,7,1,2,8]","8","82171667","","","","","","","","","","","","","","","","","","","","","","","","","","","",""
"","","","","","html-button-response","339","1415447","0.0-333.0","1415825.7999999998","DSBrecall","82175643","DSBrecall","","false","","","","","","8","5","0.625","","","","","","","","","","","","","","","","","","","","","","","","",""
"","","","","","dsb-summary-calculation","340","1415448","0.0-334.0","null","","null","","","","","","","","","","","","","","","","","","","","","0","0","0.625","1415825.7999999998","","","","","","","","","","","",""
"","","","","","consolidated-trial-data","341","1415448","0.0-335.0","null","consolidated-trial-data","null","consolidated-trial-data","","","","","","","","","","","","","","0","0","0.25","","3","2","0","0","0.625","","1","1","39","1","1035.02222222245","0.9","3","","","","",""
"","","","","","html-button-response","342","1416450","0.0-336.0","1002","block message","0","","","","","","","","","","","","","","","","","","","","","","","","","","","","","","","","","","","",""
"","","","","","html-button-response","343","1417608","0.0-337.0","1157","VS_instruct","0","VS_instruct","","","","","","","","","","","","","","","","","","","","","","","","","","","","","","","","","","",""
"","","","","","html-button-response","344","1418550","0.0-338.0","941.8000000007451","VisSearch","","VisSearch","","true","1","true","","","","","","","","","","","","","","","","","","","","","","","","","","","","","","",""
"","","","","","html-button-response","345","1419860","0.0-339.0","1309.3999999994412","VisSearch","","VisSearch","","true","1","true","","","","","","","","","","","","","","","","","","","","","","","","","","","","","","",""
"","","","","","html-button-response","346","1420800","0.0-340.0","939.6000000005588","VisSearch","","VisSearch","","true","1","true","","","","","","","","","","","","","","","","","","","","","","","","","","","","","","",""
"","","","","","html-button-response","347","1421811","0.0-341.0","1010.5","VisSearch","","VisSearch","","true","1","true","","","","","","","","","","","","","","","","","","","","","","","","","","","","","","",""
"","","","","","html-button-response","348","1422808","0.0-342.0","996.6000000005588","VisSearch","","VisSearch","","true","1","true","","","","","","","","","","","","","","","","","","","","","","","","","","","","","","",""
"","","","","","html-button-response","349","1423712","0.0-343.0","903.6000000005588","VisSearch","","VisSearch","","true","1","true","","","","","","","","","","","","","","","","","","","","","","","","","","","","","","",""
"","","","","","html-button-response","350","1424358","0.0-344.0","645.5","VisSearch","","VisSearch","","true","1","true","","","","","","","","","","","","","","","","","","","","","","","","","","","","","","",""
"","","","","","html-button-response","351","1425311","0.0-345.0","952.3000000007451","VisSearch","","VisSearch","","true","1","true","","","","","","","","","","","","","","","","","","","","","","","","","","","","","","",""
"","","","","","html-button-response","352","1426483","0.0-346.0","1171.3999999994412","VisSearch","","VisSearch","","true","1","true","","","","","","","","","","","","","","","","","","","","","","","","","","","","","","",""
"","","","","","html-button-response","353","1427657","0.0-347.0","1173.7000000001863","VisSearch","","VisSearch","","true","1","true","","","","","","","","","","","","","","","","","","","","","","","","","","","","","","",""
"","","","","","html-keyboard-response","354","1427658","0.0-348.0","null","","null","","","","","","","","","","","","vissearch-summary-calculation","1","1004.4400000002236","","","","","","","","","","","","","","","","","","","","","",""
"","","","","","html-button-response","355","1429178","0.0-349.0","1520","DSB_instruct","0","DSB_instruct","","","","","","","","","","","","","","","","","","","","","","","","","","","","","","","","","","",""
"","","","","","html-keyboard-response","356","1438236","0.0-350.0","","DSB","","DSB 62731697","","","","","[6,2,7,3,1,6,9,7]","8","79613726","","","","","","","","","","","","","","","","","","","","","","","","","","","",""
"","","","","","html-button-response","357","1444677","0.0-351.0","1445055.7999999998","DSBrecall","97654321","DSBrecall","","false","","","","","","8","2","0.25","","","","","","","","","","","","","","","","","","","","","","","","",""
"","","","","","dsb-summary-calculation","358","1444678","0.0-352.0","null","","null","","","","","","","","","","","","","","","0","0","0.25","1445055.7999999998","","","","","","","","","","","","","","","","","",""
"","","","","","html-button-response","359","1445768","0.0-353.0","1090","image_instruct","0","image_instruct","","","","","","","","","","","","","","","","","","","","","","","","","","","","","","","","","","",""
"","","","","","html-keyboard-response","360","1460778","0.0-354.0","null","img7","null","img7","","","","","","","","","","","","","","","","","","1","2","","","","","","","","","","","","","","","",""
"","","","","","html-button-response","361","1462247","0.0-355.0","1468","DSB_instruct","0","DSB_instruct","","","","","","","","","","","","","","","","","","","","","","","","","","","","","","","","","","",""
"","","","","","html-keyboard-response","362","1471308","0.0-356.0","","DSB","","DSB 45419441","","","","","[4,5,4,1,9,4,4,1]","8","14491454","","","","","","","","","","","","","","","","","","","","","","","","","","","",""
"","","","","","html-button-response","363","1479233","0.0-357.0","1479611.7999999998","DSBrecall","14954367","DSBrecall","","false","","","","","","8","2","0.25","","","","","","","","","","","","","","","","","","","","","","","","",""
"","","","","","dsb-summary-calculation","364","1479234","0.0-358.0","null","","null","","","","","","","","","","","","","","","","","","","","","0","0","0.25","1479611.7999999998","","","","","","","","","","","",""
"","","","","","consolidated-trial-data","365","1479234","0.0-359.0","null","consolidated-trial-data","null","consolidated-trial-data","","","","","","","","","","","","","","0","0","0.25","","1","2","0","0","0.25","","1","2","39","1","1004.4400000002236","1","7","","","","",""
"","","","","","html-button-response","366","1480108","0.0-360.0","874","block message","0","","","","","","","","","","","","","","","","","","","","","","","","","","","","","","","","","","","",""
"","","","","","html-button-response","367","1480665","0.0-361.0","557","VS_instruct","0","VS_instruct","","","","","","","","","","","","","","","","","","","","","","","","","","","","","","","","","","",""
"","","","","","html-button-response","368","1481886","0.0-362.0","1220.2000000001863","VisSearch","","VisSearch","","true","1","true","","","","","","","","","","","","","","","","","","","","","","","","","","","","","","",""
"","","","","","html-button-response","369","1482989","0.0-363.0","1102.5","VisSearch","","VisSearch","","true","1","true","","","","","","","","","","","","","","","","","","","","","","","","","","","","","","",""
"","","","","","html-button-response","370","1484247","0.0-364.0","1257.5","VisSearch","","VisSearch","","true","1","true","","","","","","","","","","","","","","","","","","","","","","","","","","","","","","",""
"","","","","","html-button-response","371","1485452","0.0-365.0","1204.4000000003725","VisSearch","","VisSearch","","true","1","true","","","","","","","","","","","","","","","","","","","","","","","","","","","","","","",""
"","","","","","html-button-response","372","1486447","0.0-366.0","994.6000000005588","VisSearch","","VisSearch","","true","1","true","","","","","","","","","","","","","","","","","","","","","","","","","","","","","","",""
"","","","","","html-button-response","373","1487663","0.0-367.0","1215.5","VisSearch","","VisSearch","","true","1","true","","","","","","","","","","","","","","","","","","","","","","","","","","","","","","",""
"","","","","","html-button-response","374","1488830","0.0-368.0","1166.6000000005588","VisSearch","","VisSearch","","true","1","true","","","","","","","","","","","","","","","","","","","","","","","","","","","","","","",""
"","","","","","html-button-response","375","1489831","0.0-369.0","1000.7000000001863","VisSearch","","VisSearch","","true","1","true","","","","","","","","","","","","","","","","","","","","","","","","","","","","","","",""
"","","","","","html-button-response","376","1491193","0.0-370.0","1361.5","VisSearch","","VisSearch","","true","1","true","","","","","","","","","","","","","","","","","","","","","","","","","","","","","","",""
"","","","","","html-button-response","377","1492308","0.0-371.0","1114.7000000001863","VisSearch","","VisSearch","","true","1","true","","","","","","","","","","","","","","","","","","","","","","","","","","","","","","",""
"","","","","","html-keyboard-response","378","1492312","0.0-372.0","null","","null","","","","","","","","","","","","vissearch-summary-calculation","1","1163.8200000002048","","","","","","","","","","","","","","","","","","","","","",""
"","","","","","html-button-response","379","1493181","0.0-373.0","869","DSB_instruct","0","DSB_instruct","","","","","","","","","","","","","","","","","","","","","","","","","","","","","","","","","","",""
"","","","","","html-keyboard-response","380","1502261","0.0-374.0","","DSB","","DSB 36243835","","","","","[3,6,2,4,3,8,3,5]","8","53834263","","","","","","","","","","","","","","","","","","","","","","","","","","","",""
"","","","","","html-button-response","381","1510263","0.0-375.0","1510641.8999999994","DSBrecall","53846789","DSBrecall","","false","","","","","","8","3","0.375","","","","","","","","","","","","","","","","","","","","","","","","",""
"","","","","","dsb-summary-calculation","382","1510264","0.0-376.0","null","","null","","","","","","","","","","","","","","","0","0","0.375","1510641.8999999994","","","","","","","","","","","","","","","","","",""
"","","","","","html-button-response","383","1511322","0.0-377.0","1058","image_instruct","0","image_instruct","","","","","","","","","","","","","","","","","","","","","","","","","","","","","","","","","","",""
"","","","","","html-keyboard-response","384","1526324","0.0-378.0","null","img6","null","img6","","","","","","","","","","","","","","","","","","3","2","","","","","","","","","","","","","","","",""
"","","","","","html-button-response","385","1527349","0.0-379.0","1025","DSB_instruct","0","DSB_instruct","","","","","","","","","","","","","","","","","","","","","","","","","","","","","","","","","","",""
"","","","","","html-keyboard-response","386","1536436","0.0-380.0","","DSB","","DSB 38547460","","","","","[3,8,5,4,7,4,6,0]","8","06474583","","","","","","","","","","","","","","","","","","","","","","","","","","","",""
"","","","","","html-button-response","387","1557787","0.0-381.0","1558165.7999999998","DSBrecall","06478351","DSBrecall","","false","","","","","","8","4","0.5","","","","","","","","","","","","","","","","","","","","","","","","",""
"","","","","","dsb-summary-calculation","388","1557788","0.0-382.0","null","","null","","","","","","","","","","","","","","","","","","","","","0","0","0.5","1558165.7999999998","","","","","","","","","","","",""
"","","","","","consolidated-trial-data","389","1557788","0.0-383.0","null","consolidated-trial-data","null","consolidated-trial-data","","","","","","","","","","","","","","0","0","0.375","","3","2","0","0","0.5","","1","3","39","1","1163.8200000002048","1","6","","","","",""
"","","","","","html-button-response","390","1559041","0.0-384.0","1252","block message","0","","","","","","","","","","","","","","","","","","","","","","","","","","","","","","","","","","","",""
"","","","","","html-button-response","391","1560202","0.0-385.0","1161","VS_instruct","0","VS_instruct","","","","","","","","","","","","","","","","","","","","","","","","","","","","","","","","","","",""
"","","","","","html-button-response","392","1561330","0.0-386.0","1127.1000000005588","VisSearch","","VisSearch","","true","1","true","","","","","","","","","","","","","","","","","","","","","","","","","","","","","","",""
"","","","","","html-button-response","393","1562743","0.0-387.0","1412.5","VisSearch","","VisSearch","","true","1","true","","","","","","","","","","","","","","","","","","","","","","","","","","","","","","",""
"","","","","","html-button-response","394","1563750","0.0-388.0","1006.3999999994412","VisSearch","","VisSearch","","true","1","true","","","","","","","","","","","","","","","","","","","","","","","","","","","","","","",""
"","","","","","html-button-response","395","1564689","0.0-389.0","938.7000000001863","VisSearch","","VisSearch","","true","1","true","","","","","","","","","","","","","","","","","","","","","","","","","","","","","","",""
"","","","","","html-button-response","396","1565820","0.0-390.0","1130.5","VisSearch","","VisSearch","","true","1","true","","","","","","","","","","","","","","","","","","","","","","","","","","","","","","",""
"","","","","","html-button-response","397","1566811","0.0-391.0","990.6000000005588","VisSearch","","VisSearch","","true","1","true","","","","","","","","","","","","","","","","","","","","","","","","","","","","","","",""
"","","","","","html-button-response","398","1567768","0.0-392.0","956.5","VisSearch","","VisSearch","","true","1","true","","","","","","","","","","","","","","","","","","","","","","","","","","","","","","",""
"","","","","","html-button-response","399","1568878","0.0-393.0","1109.6000000005588","VisSearch","","VisSearch","","true","1","true","","","","","","","","","","","","","","","","","","","","","","","","","","","","","","",""
"","","","","","html-button-response","400","1570216","0.0-394.0","1337.3999999994412","VisSearch","","VisSearch","","true","1","true","","","","","","","","","","","","","","","","","","","","","","","","","","","","","","",""
"","","","","","html-button-response","401","1571157","0.0-395.0","940.5","VisSearch","","VisSearch","","true","1","true","","","","","","","","","","","","","","","","","","","","","","","","","","","","","","",""
"","","","","","html-keyboard-response","402","1571158","0.0-396.0","null","","null","","","","","","","","","","","","vissearch-summary-calculation","1","1094.9800000000746","","","","","","","","","","","","","","","","","","","","","",""
"","","","","","html-button-response","403","1572369","0.0-397.0","1210","DSB_instruct","0","DSB_instruct","","","","","","","","","","","","","","","","","","","","","","","","","","","","","","","","","","",""
"","","","","","html-keyboard-response","404","1581443","0.0-398.0","","DSB","","DSB 29474567","","","","","[2,9,4,7,4,5,6,7]","8","76547492","","","","","","","","","","","","","","","","","","","","","","","","","","","",""
"","","","","","html-button-response","405","1589005","0.0-399.0","1589383.7999999998","DSBrecall","76495643","DSBrecall","","false","","","","","","8","2","0.25","","","","","","","","","","","","","","","","","","","","","","","","",""
"","","","","","dsb-summary-calculation","406","1589006","0.0-400.0","null","","null","","","","","","","","","","","","","","","0","0","0.25","1589383.7999999998","","","","","","","","","","","","","","","","","",""
"","","","","","html-button-response","407","1589992","0.0-401.0","986","image_instruct","0","image_instruct","","","","","","","","","","","","","","","","","","","","","","","","","","","","","","","","","","",""
"","","","","","html-keyboard-response","408","1604993","0.0-402.0","null","img10","null","img10","","","","","","","","","","","","","","","","","","null","null","","","","","","","","","","","","","","","",""
"","","","","","html-button-response","409","1606258","0.0-403.0","1265","DSB_instruct","0","DSB_instruct","","","","","","","","","","","","","","","","","","","","","","","","","","","","","","","","","","",""
"","","","","","html-keyboard-response","410","1615298","0.0-404.0","","DSB","","DSB 63755140","","","","","[6,3,7,5,5,1,4,0]","8","04155736","","","","","","","","","","","","","","","","","","","","","","","","","","","",""
"","","","","","html-button-response","411","1620890","0.0-405.0","1621268.7000000002","DSBrecall","04156789","DSBrecall","","false","","","","","","8","5","0.625","","","","","","","","","","","","","","","","","","","","","","","","",""
"","","","","","dsb-summary-calculation","412","1620891","0.0-406.0","null","","null","","","","","","","","","","","","","","","","","","","","","0","0","0.625","1621268.7000000002","","","","","","","","","","","",""
"","","","","","consolidated-trial-data","413","1620891","0.0-407.0","null","consolidated-trial-data","null","consolidated-trial-data","","","","","","","","","","","","","","0","0","0.25","","null","null","0","0","0.625","","1","4","39","1","1094.9800000000746","1","10","","","","",""
"","","","","","html-button-response","414","1621953","0.0-408.0","1062","block message","0","","","","","","","","","","","","","","","","","","","","","","","","","","","","","","","","","","","",""
"","","","","","html-button-response","415","1622675","0.0-409.0","721","VS_instruct","0","VS_instruct","","","","","","","","","","","","","","","","","","","","","","","","","","","","","","","","","","",""
"","","","","","html-button-response","416","1623554","0.0-410.0","878.0999999996275","VisSearch","","VisSearch","","true","1","true","","","","","","","","","","","","","","","","","","","","","","","","","","","","","","",""
"","","","","","html-button-response","417","1624524","0.0-411.0","969.3999999994412","VisSearch","","VisSearch","","true","1","true","","","","","","","","","","","","","","","","","","","","","","","","","","","","","","",""
"","","","","","html-button-response","418","1625608","0.0-412.0","1083.5999999996275","VisSearch","","VisSearch","","true","1","true","","","","","","","","","","","","","","","","","","","","","","","","","","","","","","",""
"","","","","","html-button-response","419","1626668","0.0-413.0","1059.6000000005588","VisSearch","","VisSearch","","true","1","true","","","","","","","","","","","","","","","","","","","","","","","","","","","","","","",""
"","","","","","html-button-response","420","1627622","0.0-414.0","953.5","VisSearch","","VisSearch","","true","1","true","","","","","","","","","","","","","","","","","","","","","","","","","","","","","","",""
"","","","","","html-button-response","421","1628445","0.0-415.0","822.5","VisSearch","","VisSearch","","true","1","true","","","","","","","","","","","","","","","","","","","","","","","","","","","","","","",""
"","","","","","html-button-response","422","1629545","0.0-416.0","1099.3999999994412","VisSearch","","VisSearch","","true","1","true","","","","","","","","","","","","","","","","","","","","","","","","","","","","","","",""
"","","","","","html-button-response","423","1630178","0.0-417.0","632.3999999994412","VisSearch","","VisSearch","","true","1","true","","","","","","","","","","","","","","","","","","","","","","","","","","","","","","",""
"","","","","","html-button-response","424","1631259","0.0-418.0","1080.5","VisSearch","","VisSearch","","true","1","true","","","","","","","","","","","","","","","","","","","","","","","","","","","","","","",""
"","","","","","html-button-response","425","1632159","0.0-419.0","899.6000000005588","VisSearch","","VisSearch","","true","1","true","","","","","","","","","","","","","","","","","","","","","","","","","","","","","","",""
"","","","","","html-keyboard-response","426","1632160","0.0-420.0","null","","null","","","","","","","","","","","","vissearch-summary-calculation","1","947.8599999998696","","","","","","","","","","","","","","","","","","","","","",""
"","","","","","html-button-response","427","1632911","0.0-421.0","751","DSB_instruct","0","DSB_instruct","","","","","","","","","","","","","","","","","","","","","","","","","","","","","","","","","","",""
"","","","","","html-keyboard-response","428","1641988","0.0-422.0","","DSB","","DSB 51006276","","","","","[5,1,0,0,6,2,7,6]","8","67260015","","","","","","","","","","","","","","","","","","","","","","","","","","","",""
"","","","","","html-button-response","429","1647839","0.0-423.0","1648217.7000000002","DSBrecall","67453211","DSBrecall","","false","","","","","","8","3","0.375","","","","","","","","","","","","","","","","","","","","","","","","",""
"","","","","","dsb-summary-calculation","430","1647840","0.0-424.0","null","","null","","","","","","","","","","","","","","","0","0","0.375","1648217.7000000002","","","","","","","","","","","","","","","","","",""
"","","","","","html-button-response","431","1648628","0.0-425.0","788","image_instruct","0","image_instruct","","","","","","","","","","","","","","","","","","","","","","","","","","","","","","","","","","",""
"","","","","","html-keyboard-response","432","1663643","0.0-426.0","null","img4","null","img4","","","","","","","","","","","","","","","","","","1","2","","","","","","","","","","","","","","","",""
"","","","","","html-button-response","433","1665369","0.0-427.0","1725","DSB_instruct","0","DSB_instruct","","","","","","","","","","","","","","","","","","","","","","","","","","","","","","","","","","",""
"","","","","","html-keyboard-response","434","1674406","0.0-428.0","","DSB","","DSB 41232102","","","","","[4,1,2,3,2,1,0,2]","8","20123214","","","","","","","","","","","","","","","","","","","","","","","","","","","",""
"","","","","","html-button-response","435","1683441","0.0-429.0","1683819.8999999994","DSBrecall","21015614","DSBrecall","","false","","","","","","8","3","0.375","","","","","","","","","","","","","","","","","","","","","","","","",""
"","","","","","dsb-summary-calculation","436","1683442","0.0-430.0","null","","null","","","","","","","","","","","","","","","","","","","","","0","0","0.375","1683819.8999999994","","","","","","","","","","","",""
"","","","","","consolidated-trial-data","437","1683443","0.0-431.0","null","consolidated-trial-data","null","consolidated-trial-data","","","","","","","","","","","","","","0","0","0.375","","1","2","0","0","0.375","","1","5","39","1","947.8599999998696","1","4","","","","",""
"","","","","","html-button-response","438","1687151","0.0-432.0","3709","attncheck","2","attncheck","","","","","","","","","","","","","","","","","","","","","","","","","","","","","","","true","Next","","",""
"","","","","","html-button-response","439","1689097","0.0-433.0","1945","block message","0","","","","","","","","","","","","","","","","","","","","","","","","","","","","","","","","","","","",""
"","","","","","html-button-response","440","1690102","0.0-434.0","1005","VS_instruct","0","VS_instruct","","","","","","","","","","","","","","","","","","","","","","","","","","","","","","","","","","",""
"","","","","","html-button-response","441","1691099","0.0-435.0","996.3000000007451","VisSearch","","VisSearch","","true","1","true","","","","","","","","","","","","","","","","","","","","","","","","","","","","","","",""
