"success","timeout","failed_images","failed_audio","failed_video","trial_type","trial_index","time_elapsed","internal_node_id","participant_age","participant_gender","rt","stimulus","response","task","pixels_per_unit","is_correct","search_difficulty","enhanced","originalDigits","currentSpanLength","reversedDigits","span_length","correct_digits","digit_accuracy","trial_Type","VISsearch_propcorrect","VISsearch_meanRT","DSBpre_propcorrect","DSBpre_maxspan","DSBpre_digitaccuracy","DSBpre_rt","vegetationLevel","imageType","DSBpost_propcorrect","DSBpost_maxspan","DSBpost_digitaccuracy","DSBpost_rt","block","trial","trialid","VisDifficulty","Vis_meanRT","Vis_propCorr","imageIDX","attention_check_correct","target_button","question_order","image_id","iamge_set"
"true","false","[]","[]","[]","preload","0","762","0.0-0.0","39","male","","","","","","","","","","","","","","","","","","","","","","","","","","","","","","","","","","","","","","",""
"","","","","","html-button-response","1","4227","0.0-1.0","39","male","3463","welcome_msg","0","wecome","","","","","","","","","","","","","","","","","","","","","","","","","","","","","","","","","","",""
"","","","","","html-button-response","2","67260","0.0-2.0","39","male","63027","PISdoc","0","PIS","","","","","","","","","","","","","","","","","","","","","","","","","","","","","","","","","","",""
"","","","","","survey-html-form","3","74576","0.0-3.0","39","male","7315","","{""age"":""39"",""gender"":""male""}","demographics","","","","","","","","","","","","","","","","","","","","","","","","","","","","","","","","","","",""
"","","","","","html-button-response","4","95142","0.0-4.0","39","male","20565","<div style= ""font-size: 24px; color: white; 
        position: absolute;
         top: 50%;left: 50%; transform: translate(-50%, -50%)"">        

            <br>Welcome to the experiment.<br> 
            Please read the instructions carefully.<br>
            There are two task types.<br><br>
            In the visual search task:<br>
            You must search the screen for either a red <font color = ""red"">""T"" </font>
            or blue <font color = ""blue""> ""O"" </font> hidden among red <font color = ""red""> ""X""s </font>.
            <br><br> In the digit task:<br> You must recall a list of numbers in reverse order. </div>
        ","0","","","","","","","","","","","","","","","","","","","","","","","","","","","","","","","","","","","",""
"","","","","","html-button-response","5","248408","0.0-5.0","39","male","153273","calibration","0","calibration","119","","","","","","","","","","","","","","","","","","","","","","","","","","","","","","","","","",""
"","","","","","html-button-response","6","260612","0.0-6.0","39","male","12202","VS_instruct","0","VS_instruct","","","","","","","","","","","","","","","","","","","","","","","","","","","","","","","","","","",""
"","","","","","html-button-response","7","262818","0.0-7.0","39","male","2203.5999999940395","VisSearch","","VisSearch","","true","1","true","","","","","","","","","","","","","","","","","","","","","","","","","","","","","","",""
"","","","","","html-button-response","8","264977","0.0-8.0","39","male","2157.300000011921","VisSearch","","VisSearch","","true","1","true","","","","","","","","","","","","","","","","","","","","","","","","","","","","","","",""
"","","","","","html-button-response","9","267277","0.0-9.0","39","male","2298.600000023842","VisSearch","","VisSearch","","true","1","true","","","","","","","","","","","","","","","","","","","","","","","","","","","","","","",""
"","","","","","html-button-response","10","269208","0.0-10.0","39","male","1929","VisSearch","","VisSearch","","true","1","true","","","","","","","","","","","","","","","","","","","","","","","","","","","","","","",""
"","","","","","html-button-response","11","270565","0.0-11.0","39","male","1356.1000000238419","VisSearch","","VisSearch","","true","1","true","","","","","","","","","","","","","","","","","","","","","","","","","","","","","","",""
"","","","","","html-button-response","12","271832","0.0-12.0","39","male","1266","VisSearch","","VisSearch","","true","1","true","","","","","","","","","","","","","","","","","","","","","","","","","","","","","","",""
"","","","","","html-button-response","13","273174","0.0-13.0","39","male","1340.4000000059605","VisSearch","","VisSearch","","true","1","true","","","","","","","","","","","","","","","","","","","","","","","","","","","","","","",""
"","","","","","html-button-response","14","274564","0.0-14.0","39","male","1389","VisSearch","","VisSearch","","true","1","true","","","","","","","","","","","","","","","","","","","","","","","","","","","","","","",""
"","","","","","html-button-response","15","276021","0.0-15.0","39","male","1456.1000000238419","VisSearch","","VisSearch","","true","1","true","","","","","","","","","","","","","","","","","","","","","","","","","","","","","","",""
"","","","","","html-button-response","16","277391","0.0-16.0","39","male","1368.6000000238419","VisSearch","","VisSearch","","true","1","true","","","","","","","","","","","","","","","","","","","","","","","","","","","","","","",""
"","","","","","html-button-response","17","287905","0.0-17.0","39","male","10513","DSB_instruct","0","DSB_instruct","","","","","","","","","","","","","","","","","","","","","","","","","","","","","","","","","","",""
"","","","","","html-keyboard-response","18","292423","0.0-18.0","39","male","","DSB","","DSB 5420","","","","","[5,4,2,0]","4","0245","","","","","","","","","","","","","","","","","","","","","","","","","","","",""
"","","","","","html-button-response","19","333762","0.0-19.0","39","male","336272","DSBrecall","5432","DSBrecall","","false","","","","","","4","0","0","","","","","","","","","","","","","","","","","","","","","","","","",""
"","","","","","html-button-response","20","335959","0.0-20.0","39","male","2196","<p style='color:red;'>Incorrect.</p><p>Try to recall in the reversed order.</p>","0","feedback","","","","","","","","","","","","","","","","","","","","","","","","","","","","","","","","","","",""
"","","","","","html-button-response","21","338381","0.0-21.0","39","male","2421","DSB_instruct","0","DSB_instruct","","","","","","","","","","","","","","","","","","","","","","","","","","","","","","","","","","",""
"","","","","","html-keyboard-response","22","347309","0.0-22.0","39","male","","DSB","","DSB 23428703","","","","","[2,3,4,2,8,7,0,3]","8","30782432","","","","","","","","","","","","","","","","","","","","","","","","","","","",""
"","","","","","html-button-response","23","409979","0.0-23.0","39","male","412489","DSBrecall","30824321","DSBrecall","","false","","","","","","8","2","0.25","","","","","","","","","","","","","","","","","","","","","","","","",""
"","","","","","html-button-response","24","411096","0.0-24.0","39","male","1116","<p style='color:red;'>Incorrect.</p><p>Try to recall in the reversed order.</p>","0","feedback","","","","","","","","","","","","","","","","","","","","","","","","","","","","","","","","","","",""
"","","","","","html-button-response","25","414485","0.0-25.0","39","male","3388","VS_instruct","0","VS_instruct","","","","","","","","","","","","","","","","","","","","","","","","","","","","","","","","","","",""
"","","","","","html-button-response","26","416986","0.0-26.0","39","male","null","VisSearch","","VisSearch","","false","2","true","","","","","","","","","","","","","","","","","","","","","","","","","","","","","","",""
"","","","","","html-button-response","27","419487","0.0-27.0","39","male","null","VisSearch","","VisSearch","","false","2","true","","","","","","","","","","","","","","","","","","","","","","","","","","","","","","",""
"","","","","","html-button-response","28","421726","0.0-28.0","39","male","2237.0999999940395","VisSearch","","VisSearch","","true","2","true","","","","","","","","","","","","","","","","","","","","","","","","","","","","","","",""
"","","","","","html-button-response","29","424228","0.0-29.0","39","male","null","VisSearch","","VisSearch","","false","2","true","","","","","","","","","","","","","","","","","","","","","","","","","","","","","","",""
"","","","","","html-button-response","30","425855","0.0-30.0","39","male","1626.5999999940395","VisSearch","","VisSearch","","true","2","true","","","","","","","","","","","","","","","","","","","","","","","","","","","","","","",""
"","","","","","html-button-response","31","428219","0.0-31.0","39","male","2362.4000000059605","VisSearch","","VisSearch","","true","2","true","","","","","","","","","","","","","","","","","","","","","","","","","","","","","","",""
"","","","","","html-button-response","32","429970","0.0-32.0","39","male","1750.300000011921","VisSearch","","VisSearch","","true","2","true","","","","","","","","","","","","","","","","","","","","","","","","","","","","","","",""
"","","","","","html-button-response","33","431311","0.0-33.0","39","male","1340.5","VisSearch","","VisSearch","","true","2","true","","","","","","","","","","","","","","","","","","","","","","","","","","","","","","",""
"","","","","","html-button-response","34","432676","0.0-34.0","39","male","1363.5999999940395","VisSearch","","VisSearch","","true","2","true","","","","","","","","","","","","","","","","","","","","","","","","","","","","","","",""
"","","","","","html-button-response","35","435177","0.0-35.0","39","male","null","VisSearch","","VisSearch","","false","2","true","","","","","","","","","","","","","","","","","","","","","","","","","","","","","","",""
"","","","","","html-button-response","36","438225","0.0-36.0","39","male","3047","DSB_instruct","0","DSB_instruct","","","","","","","","","","","","","","","","","","","","","","","","","","","","","","","","","","",""
"","","","","","html-keyboard-response","37","442742","0.0-37.0","39","male","","DSB","","DSB 1844","","","","","[1,8,4,4]","4","4481","","","","","","","","","","","","","","","","","","","","","","","","","","","",""
"","","","","","html-button-response","38","452993","0.0-38.0","39","male","455503","DSBrecall","4481","DSBrecall","","true","","","","","","4","4","1","","","","","","","","","","","","","","","","","","","","","","","","",""
"","","","","","html-button-response","39","454035","0.0-39.0","39","male","1041","<p style='color:green;'>Correct!</p><p>Good job!</p>","0","feedback","","","","","","","","","","","","","","","","","","","","","","","","","","","","","","","","","","",""
"","","","","","html-button-response","40","457194","0.0-40.0","39","male","3158","DSB_instruct","0","DSB_instruct","","","","","","","","","","","","","","","","","","","","","","","","","","","","","","","","","","",""
"","","","","","html-keyboard-response","41","466121","0.0-41.0","39","male","","DSB","","DSB 93970607","","","","","[9,3,9,7,0,6,0,7]","8","70607939","","","","","","","","","","","","","","","","","","","","","","","","","","","",""
"","","","","","html-button-response","42","499465","0.0-42.0","39","male","501975","DSBrecall","70607939","DSBrecall","","true","","","","","","8","8","1","","","","","","","","","","","","","","","","","","","","","","","","",""
"","","","","","html-button-response","43","500897","0.0-43.0","39","male","1431","<p style='color:green;'>Correct!</p><p>Good job!</p>","0","feedback","","","","","","","","","","","","","","","","","","","","","","","","","","","","","","","","","","",""
"","","","","","html-button-response","44","506611","0.0-44.0-0.0","39","male","5713","expInstruc","0","expIntructions","","","","","","","","","","","","","","","","","","","","","","","","","","","","","","","","","","",""
"","","","","","html-button-response","45","509543","0.0-44.0-0.1","39","male","2931","expInstruc","0","expIntructions","","","","","","","","","","","","","","","","","","","","","","","","","","","","","","","","","","",""
"","","","","","html-button-response","46","512582","0.0-44.0-0.2","39","male","3039","expInstruc","0","expIntructions","","","","","","","","","","","","","","","","","","","","","","","","","","","","","","","","","","",""
"","","","","","html-button-response","47","516453","0.0-44.0-0.3","39","male","3870","expInstruc","0","expIntructions","","","","","","","","","","","","","","","","","","","","","","","","","","","","","","","","","","",""
"","","","","","html-button-response","48","522144","0.0-44.0-0.4","39","male","5690","expInstruc","0","expIntructions","","","","","","","","","","","","","","","","","","","","","","","","","","","","","","","","","","",""
"","","","","","html-button-response","49","531328","0.0-44.0-0.5","39","male","9183","expInstruc","0","expIntructions","","","","","","","","","","","","","","","","","","","","","","","","","","","","","","","","","","",""
"","","","","","html-button-response","50","532539","0.0-44.0-0.6","39","male","1210","expInstruc","0","expIntructions","","","","","","","","","","","","","","","","","","","","","","","","","","","","","","","","","","",""
"","","","","","html-button-response","51","537745","0.0-45.0","39","male","5205","block message","0","","","","","","","","","","","","","","","","","","","","","","","","","","","","","","","","","","","",""
"","","","","","html-button-response","52","541906","0.0-46.0","39","male","4160","VS_instruct","0","VS_instruct","","","","","","","","","","","","","","","","","","","","","","","","","","","","","","","","","","",""
"","","","","","html-button-response","53","543480","0.0-47.0","39","male","1572.9000000059605","VisSearch","","VisSearch","","true","1","true","","","","","","","","","","","","","","","","","","","","","","","","","","","","","","",""
"","","","","","html-button-response","54","544692","0.0-48.0","39","male","1210.199999988079","VisSearch","","VisSearch","","true","1","true","","","","","","","","","","","","","","","","","","","","","","","","","","","","","","",""
"","","","","","html-button-response","55","545893","0.0-49.0","39","male","1199.7999999821186","VisSearch","","VisSearch","","true","1","true","","","","","","","","","","","","","","","","","","","","","","","","","","","","","","",""
"","","","","","html-button-response","56","547302","0.0-50.0","39","male","1407.4000000059605","VisSearch","","VisSearch","","true","1","true","","","","","","","","","","","","","","","","","","","","","","","","","","","","","","",""
"","","","","","html-button-response","57","548251","0.0-51.0","39","male","948.1999999880791","VisSearch","","VisSearch","","true","1","true","","","","","","","","","","","","","","","","","","","","","","","","","","","","","","",""
"","","","","","html-button-response","58","549178","0.0-52.0","39","male","925.5999999940395","VisSearch","","VisSearch","","true","1","true","","","","","","","","","","","","","","","","","","","","","","","","","","","","","","",""
"","","","","","html-button-response","59","550118","0.0-53.0","39","male","938.0999999940395","VisSearch","","VisSearch","","true","1","true","","","","","","","","","","","","","","","","","","","","","","","","","","","","","","",""
"","","","","","html-button-response","60","551192","0.0-54.0","39","male","1072.5999999940395","VisSearch","","VisSearch","","true","1","true","","","","","","","","","","","","","","","","","","","","","","","","","","","","","","",""
"","","","","","html-button-response","61","552426","0.0-55.0","39","male","1232.5","VisSearch","","VisSearch","","true","1","true","","","","","","","","","","","","","","","","","","","","","","","","","","","","","","",""
"","","","","","html-button-response","62","553512","0.0-56.0","39","male","1084.8999999761581","VisSearch","","VisSearch","","true","1","true","","","","","","","","","","","","","","","","","","","","","","","","","","","","","","",""
"","","","","","html-keyboard-response","63","553517","0.0-57.0","39","male","null","","null","","","","","","","","","","","","vissearch-summary-calculation","1","1159.2199999928475","","","","","","","","","","","","","","","","","","","","","",""
"","","","","","html-button-response","64","554974","0.0-58.0","39","male","1455","DSB_instruct","0","DSB_instruct","","","","","","","","","","","","","","","","","","","","","","","","","","","","","","","","","","",""
"","","","","","html-keyboard-response","65","563902","0.0-59.0","39","male","","DSB","","DSB 50759325","","","","","[5,0,7,5,9,3,2,5]","8","52395705","","","","","","","","","","","","","","","","","","","","","","","","","","","",""
"","","","","","html-button-response","66","604535","0.0-60.0","39","male","607044.900000006","DSBrecall","52395705","DSBrecall","","true","","","","","","8","8","1","","","","","","","","","","","","","","","","","","","","","","","","",""
"","","","","","dsb-summary-calculation","67","604540","0.0-61.0","39","male","null","","null","","","","","","","","","","","","","","","1","8","1","607044.900000006","","","","","","","","","","","","","","","","","",""
"","","","","","html-button-response","68","608450","0.0-62.0","39","male","3909","image_instruct","0","image_instruct","","","","","","","","","","","","","","","","","","","","","","","","","","","","","","","","","","",""
"","","","","","html-keyboard-response","69","623453","0.0-63.0","39","male","null","img3","null","img3","","","","","","","","","","","","","","","","","","3","2","","","","","","","","","","","","","","","",""
"","","","","","html-button-response","70","628693","0.0-64.0","39","male","5239","DSB_instruct","0","DSB_instruct","","","","","","","","","","","","","","","","","","","","","","","","","","","","","","","","","","",""
"","","","","","html-keyboard-response","71","637620","0.0-65.0","39","male","","DSB","","DSB 47624878","","","","","[4,7,6,2,4,8,7,8]","8","87842674","","","","","","","","","","","","","","","","","","","","","","","","","","","",""
"","","","","","html-button-response","72","658085","0.0-66.0","39","male","660595.2000000179","DSBrecall","87842674","DSBrecall","","true","","","","","","8","8","1","","","","","","","","","","","","","","","","","","","","","","","","",""
"","","","","","dsb-summary-calculation","73","658088","0.0-67.0","39","male","null","","null","","","","","","","","","","","","","","","","","","","","","1","8","1","660595.2000000179","","","","","","","","","","","",""
"","","","","","consolidated-trial-data","74","658089","0.0-68.0","39","male","null","consolidated-trial-data","null","consolidated-trial-data","","","","","","","","","","","","","","1","8","1","","3","2","1","8","1","","0","0","39","1","1159.2199999928475","1","3","","","","",""
"","","","","","html-button-response","75","660463","0.0-69.0","39","male","2373","block message","0","","","","","","","","","","","","","","","","","","","","","","","","","","","","","","","","","","","",""
"","","","","","html-button-response","76","663966","0.0-70.0","39","male","3503","VS_instruct","0","VS_instruct","","","","","","","","","","","","","","","","","","","","","","","","","","","","","","","","","","",""
"","","","","","html-button-response","77","665211","0.0-71.0","39","male","1242.5999999940395","VisSearch","","VisSearch","","true","1","true","","","","","","","","","","","","","","","","","","","","","","","","","","","","","","",""
"","","","","","html-button-response","78","666250","0.0-72.0","39","male","1038.300000011921","VisSearch","","VisSearch","","true","1","true","","","","","","","","","","","","","","","","","","","","","","","","","","","","","","",""
"","","","","","html-button-response","79","667178","0.0-73.0","39","male","926.5999999940395","VisSearch","","VisSearch","","true","1","true","","","","","","","","","","","","","","","","","","","","","","","","","","","","","","",""
"","","","","","html-button-response","80","668039","0.0-74.0","39","male","859.8999999761581","VisSearch","","VisSearch","","true","1","true","","","","","","","","","","","","","","","","","","","","","","","","","","","","","","",""
"","","","","","html-button-response","81","669121","0.0-75.0","39","male","1080.0999999940395","VisSearch","","VisSearch","","true","1","true","","","","","","","","","","","","","","","","","","","","","","","","","","","","","","",""
"","","","","","html-button-response","82","670170","0.0-76.0","39","male","1048.7000000178814","VisSearch","","VisSearch","","true","1","true","","","","","","","","","","","","","","","","","","","","","","","","","","","","","","",""
"","","","","","html-button-response","83","671195","0.0-77.0","39","male","1023.5999999940395","VisSearch","","VisSearch","","true","1","true","","","","","","","","","","","","","","","","","","","","","","","","","","","","","","",""
"","","","","","html-button-response","84","672438","0.0-78.0","39","male","1242","VisSearch","","VisSearch","","true","1","true","","","","","","","","","","","","","","","","","","","","","","","","","","","","","","",""
"","","","","","html-button-response","85","673297","0.0-79.0","39","male","857.5","VisSearch","","VisSearch","","true","1","true","","","","","","","","","","","","","","","","","","","","","","","","","","","","","","",""
"","","","","","html-button-response","86","674071","0.0-80.0","39","male","773.1000000238419","VisSearch","","VisSearch","","true","1","true","","","","","","","","","","","","","","","","","","","","","","","","","","","","","","",""
"","","","","","html-keyboard-response","87","674079","0.0-81.0","39","male","null","","null","","","","","","","","","","","","vissearch-summary-calculation","1","1009.2400000005961","","","","","","","","","","","","","","","","","","","","","",""
"","","","","","html-button-response","88","675293","0.0-82.0","39","male","1212","DSB_instruct","0","DSB_instruct","","","","","","","","","","","","","","","","","","","","","","","","","","","","","","","","","","",""
"","","","","","html-keyboard-response","89","684222","0.0-83.0","39","male","","DSB","","DSB 35859863","","","","","[3,5,8,5,9,8,6,3]","8","36895853","","","","","","","","","","","","","","","","","","","","","","","","","","","",""
"","","","","","html-button-response","90","711451","0.0-84.0","39","male","713960.6000000238","DSBrecall","38695853","DSBrecall","","false","","","","","","8","6","0.75","","","","","","","","","","","","","","","","","","","","","","","","",""
"","","","","","dsb-summary-calculation","91","711454","0.0-85.0","39","male","null","","null","","","","","","","","","","","","","","","0","0","0.75","713960.6000000238","","","","","","","","","","","","","","","","","",""
"","","","","","html-button-response","92","714002","0.0-86.0","39","male","2546","image_instruct","0","image_instruct","","","","","","","","","","","","","","","","","","","","","","","","","","","","","","","","","","",""
"","","","","","html-keyboard-response","93","729005","0.0-87.0","39","male","null","img1","null","img1","","","","","","","","","","","","","","","","","","1","1","","","","","","","","","","","","","","","",""
"","","","","","html-button-response","94","731521","0.0-88.0","39","male","2515","DSB_instruct","0","DSB_instruct","","","","","","","","","","","","","","","","","","","","","","","","","","","","","","","","","","",""
"","","","","","html-keyboard-response","95","740452","0.0-89.0","39","male","","DSB","","DSB 06185871","","","","","[0,6,1,8,5,8,7,1]","8","17858160","","","","","","","","","","","","","","","","","","","","","","","","","","","",""
"","","","","","html-button-response","96","776508","0.0-90.0","39","male","779017.900000006","DSBrecall","51758160","DSBrecall","","false","","","","","","8","5","0.625","","","","","","","","","","","","","","","","","","","","","","","","",""
"","","","","","dsb-summary-calculation","97","776512","0.0-91.0","39","male","null","","null","","","","","","","","","","","","","","","","","","","","","0","0","0.625","779017.900000006","","","","","","","","","","","",""
"","","","","","consolidated-trial-data","98","776513","0.0-92.0","39","male","null","consolidated-trial-data","null","consolidated-trial-data","","","","","","","","","","","","","","0","0","0.75","","1","1","0","0","0.625","","0","1","39","1","1009.2400000005961","1","1","","","","",""
"","","","","","html-button-response","99","777762","0.0-93.0","39","male","1248","block message","0","","","","","","","","","","","","","","","","","","","","","","","","","","","","","","","","","","","",""
"","","","","","html-button-response","100","780678","0.0-94.0","39","male","2914","VS_instruct","0","VS_instruct","","","","","","","","","","","","","","","","","","","","","","","","","","","","","","","","","","",""
"","","","","","html-button-response","101","781796","0.0-95.0","39","male","1116.8999999761581","VisSearch","","VisSearch","","true","1","true","","","","","","","","","","","","","","","","","","","","","","","","","","","","","","",""
"","","","","","html-button-response","102","782675","0.0-96.0","39","male","877.6000000238419","VisSearch","","VisSearch","","true","1","true","","","","","","","","","","","","","","","","","","","","","","","","","","","","","","",""
"","","","","","html-button-response","103","783621","0.0-97.0","39","male","945.4000000059605","VisSearch","","VisSearch","","true","1","true","","","","","","","","","","","","","","","","","","","","","","","","","","","","","","",""
"","","","","","html-button-response","104","784313","0.0-98.0","39","male","690.4000000059605","VisSearch","","VisSearch","","true","1","true","","","","","","","","","","","","","","","","","","","","","","","","","","","","","","",""
"","","","","","html-button-response","105","785220","0.0-99.0","39","male","906.0999999940395","VisSearch","","VisSearch","","true","1","true","","","","","","","","","","","","","","","","","","","","","","","","","","","","","","",""
"","","","","","html-button-response","106","786087","0.0-100.0","39","male","865.7999999821186","VisSearch","","VisSearch","","true","1","true","","","","","","","","","","","","","","","","","","","","","","","","","","","","","","",""
"","","","","","html-button-response","107","787416","0.0-101.0","39","male","1327.6000000238419","VisSearch","","VisSearch","","true","1","true","","","","","","","","","","","","","","","","","","","","","","","","","","","","","","",""
"","","","","","html-button-response","108","788414","0.0-102.0","39","male","997.4000000059605","VisSearch","","VisSearch","","true","1","true","","","","","","","","","","","","","","","","","","","","","","","","","","","","","","",""
"","","","","","html-button-response","109","789305","0.0-103.0","39","male","890","VisSearch","","VisSearch","","true","1","true","","","","","","","","","","","","","","","","","","","","","","","","","","","","","","",""
"","","","","","html-button-response","110","790131","0.0-104.0","39","male","824.5999999940395","VisSearch","","VisSearch","","true","1","true","","","","","","","","","","","","","","","","","","","","","","","","","","","","","","",""
"","","","","","html-keyboard-response","111","790137","0.0-105.0","39","male","null","","null","","","","","","","","","","","","vissearch-summary-calculation","1","944.1800000011921","","","","","","","","","","","","","","","","","","","","","",""
"","","","","","html-button-response","112","791516","0.0-106.0","39","male","1377","DSB_instruct","0","DSB_instruct","","","","","","","","","","","","","","","","","","","","","","","","","","","","","","","","","","",""
"","","","","","html-keyboard-response","113","800446","0.0-107.0","39","male","","DSB","","DSB 09920997","","","","","[0,9,9,2,0,9,9,7]","8","79902990","","","","","","","","","","","","","","","","","","","","","","","","","","","",""
"","","","","","html-button-response","114","824711","0.0-108.0","39","male","827220.1000000238","DSBrecall","79902990","DSBrecall","","true","","","","","","8","8","1","","","","","","","","","","","","","","","","","","","","","","","","",""
"","","","","","dsb-summary-calculation","115","824713","0.0-109.0","39","male","null","","null","","","","","","","","","","","","","","","1","8","1","827220.1000000238","","","","","","","","","","","","","","","","","",""
"","","","","","html-button-response","116","825898","0.0-110.0","39","male","1183","image_instruct","0","image_instruct","","","","","","","","","","","","","","","","","","","","","","","","","","","","","","","","","","",""
"","","","","","html-keyboard-response","117","840901","0.0-111.0","39","male","null","img9","null","img9","","","","","","","","","","","","","","","","","","3","1","","","","","","","","","","","","","","","",""
"","","","","","html-button-response","118","842907","0.0-112.0","39","male","2005","DSB_instruct","0","DSB_instruct","","","","","","","","","","","","","","","","","","","","","","","","","","","","","","","","","","",""
"","","","","","html-keyboard-response","119","851838","0.0-113.0","39","male","","DSB","","DSB 68370171","","","","","[6,8,3,7,0,1,7,1]","8","17107386","","","","","","","","","","","","","","","","","","","","","","","","","","","",""
"","","","","","html-button-response","120","873547","0.0-114.0","39","male","876056.7000000179","DSBrecall","18107486","DSBrecall","","false","","","","","","8","6","0.75","","","","","","","","","","","","","","","","","","","","","","","","",""
"","","","","","dsb-summary-calculation","121","873550","0.0-115.0","39","male","null","","null","","","","","","","","","","","","","","","","","","","","","0","0","0.75","876056.7000000179","","","","","","","","","","","",""
"","","","","","consolidated-trial-data","122","873551","0.0-116.0","39","male","null","consolidated-trial-data","null","consolidated-trial-data","","","","","","","","","","","","","","1","8","1","","3","1","0","0","0.75","","0","2","39","1","944.1800000011921","1","9","","","","",""
"","","","","","html-button-response","123","875085","0.0-117.0","39","male","1533","block message","0","","","","","","","","","","","","","","","","","","","","","","","","","","","","","","","","","","","",""
"","","","","","html-button-response","124","876585","0.0-118.0","39","male","1499","VS_instruct","0","VS_instruct","","","","","","","","","","","","","","","","","","","","","","","","","","","","","","","","","","",""
"","","","","","html-button-response","125","877525","0.0-119.0","39","male","939.1999999880791","VisSearch","","VisSearch","","true","1","true","","","","","","","","","","","","","","","","","","","","","","","","","","","","","","",""
"","","","","","html-button-response","126","878505","0.0-120.0","39","male","978.5","VisSearch","","VisSearch","","true","1","true","","","","","","","","","","","","","","","","","","","","","","","","","","","","","","",""
"","","","","","html-button-response","127","879480","0.0-121.0","39","male","973.5999999940395","VisSearch","","VisSearch","","true","1","true","","","","","","","","","","","","","","","","","","","","","","","","","","","","","","",""
"","","","","","html-button-response","128","880317","0.0-122.0","39","male","836.0999999940395","VisSearch","","VisSearch","","true","1","true","","","","","","","","","","","","","","","","","","","","","","","","","","","","","","",""
"","","","","","html-button-response","129","881500","0.0-123.0","39","male","1181.9000000059605","VisSearch","","VisSearch","","true","1","true","","","","","","","","","","","","","","","","","","","","","","","","","","","","","","",""
"","","","","","html-button-response","130","882371","0.0-124.0","39","male","869.8000000119209","VisSearch","","VisSearch","","true","1","true","","","","","","","","","","","","","","","","","","","","","","","","","","","","","","",""
"","","","","","html-button-response","131","883492","0.0-125.0","39","male","1120","VisSearch","","VisSearch","","true","1","true","","","","","","","","","","","","","","","","","","","","","","","","","","","","","","",""
"","","","","","html-button-response","132","884225","0.0-126.0","39","male","731.5999999940395","VisSearch","","VisSearch","","true","1","true","","","","","","","","","","","","","","","","","","","","","","","","","","","","","","",""
"","","","","","html-button-response","133","885225","0.0-127.0","39","male","998.5","VisSearch","","VisSearch","","true","1","true","","","","","","","","","","","","","","","","","","","","","","","","","","","","","","",""
"","","","","","html-button-response","134","886341","0.0-128.0","39","male","1114.9000000059605","VisSearch","","VisSearch","","true","1","true","","","","","","","","","","","","","","","","","","","","","","","","","","","","","","",""
"","","","","","html-keyboard-response","135","886350","0.0-129.0","39","male","null","","null","","","","","","","","","","","","vissearch-summary-calculation","1","974.4099999994039","","","","","","","","","","","","","","","","","","","","","",""
"","","","","","html-button-response","136","887632","0.0-130.0","39","male","1281","DSB_instruct","0","DSB_instruct","","","","","","","","","","","","","","","","","","","","","","","","","","","","","","","","","","",""
"","","","","","html-keyboard-response","137","896561","0.0-131.0","39","male","","DSB","","DSB 10042666","","","","","[1,0,0,4,2,6,6,6]","8","66624001","","","","","","","","","","","","","","","","","","","","","","","","","","","",""
"","","","","","html-button-response","138","912944","0.0-132.0","39","male","915453.400000006","DSBrecall","66624001","DSBrecall","","true","","","","","","8","8","1","","","","","","","","","","","","","","","","","","","","","","","","",""
"","","","","","dsb-summary-calculation","139","912946","0.0-133.0","39","male","null","","null","","","","","","","","","","","","","","","1","8","1","915453.400000006","","","","","","","","","","","","","","","","","",""
"","","","","","html-button-response","140","913973","0.0-134.0","39","male","1027","image_instruct","0","image_instruct","","","","","","","","","","","","","","","","","","","","","","","","","","","","","","","","","","",""
"","","","","","html-keyboard-response","141","928976","0.0-135.0","39","male","null","img2","null","img2","","","","","","","","","","","","","","","","","","2","2","","","","","","","","","","","","","","","",""
"","","","","","html-button-response","142","930309","0.0-136.0","39","male","1332","DSB_instruct","0","DSB_instruct","","","","","","","","","","","","","","","","","","","","","","","","","","","","","","","","","","",""
"","","","","","html-keyboard-response","143","939239","0.0-137.0","39","male","","DSB","","DSB 28523137","","","","","[2,8,5,2,3,1,3,7]","8","73132582","","","","","","","","","","","","","","","","","","","","","","","","","","","",""
"","","","","","html-button-response","144","959265","0.0-138.0","39","male","961774.5","DSBrecall","73132582","DSBrecall","","true","","","","","","8","8","1","","","","","","","","","","","","","","","","","","","","","","","","",""
"","","","","","dsb-summary-calculation","145","959268","0.0-139.0","39","male","null","","null","","","","","","","","","","","","","","","","","","","","","1","8","1","961774.5","","","","","","","","","","","",""
"","","","","","consolidated-trial-data","146","959269","0.0-140.0","39","male","null","consolidated-trial-data","null","consolidated-trial-data","","","","","","","","","","","","","","1","8","1","","2","2","1","8","1","","0","3","39","1","974.4099999994039","1","2","","","","",""
"","","","","","html-button-response","147","961291","0.0-141.0","39","male","2022","block message","0","","","","","","","","","","","","","","","","","","","","","","","","","","","","","","","","","","","",""
"","","","","","html-button-response","148","962543","0.0-142.0","39","male","1251","VS_instruct","0","VS_instruct","","","","","","","","","","","","","","","","","","","","","","","","","","","","","","","","","","",""
"","","","","","html-button-response","149","963725","0.0-143.0","39","male","1181.5999999940395","VisSearch","","VisSearch","","true","1","true","","","","","","","","","","","","","","","","","","","","","","","","","","","","","","",""
"","","","","","html-button-response","150","964595","0.0-144.0","39","male","869","VisSearch","","VisSearch","","true","1","true","","","","","","","","","","","","","","","","","","","","","","","","","","","","","","",""
"","","","","","html-button-response","151","965721","0.0-145.0","39","male","1124.0999999940395","VisSearch","","VisSearch","","true","1","true","","","","","","","","","","","","","","","","","","","","","","","","","","","","","","",""
"","","","","","html-button-response","152","966566","0.0-146.0","39","male","844.4000000059605","VisSearch","","VisSearch","","true","1","true","","","","","","","","","","","","","","","","","","","","","","","","","","","","","","",""
"","","","","","html-button-response","153","967345","0.0-147.0","39","male","777.3000000119209","VisSearch","","VisSearch","","true","1","true","","","","","","","","","","","","","","","","","","","","","","","","","","","","","","",""
"","","","","","html-button-response","154","968162","0.0-148.0","39","male","815.5999999940395","VisSearch","","VisSearch","","true","1","true","","","","","","","","","","","","","","","","","","","","","","","","","","","","","","",""
"","","","","","html-button-response","155","969209","0.0-149.0","39","male","1046.199999988079","VisSearch","","VisSearch","","true","1","true","","","","","","","","","","","","","","","","","","","","","","","","","","","","","","",""
"","","","","","html-button-response","156","970183","0.0-150.0","39","male","972.5","VisSearch","","VisSearch","","true","1","true","","","","","","","","","","","","","","","","","","","","","","","","","","","","","","",""
"","","","","","html-button-response","157","971021","0.0-151.0","39","male","837.8000000119209","VisSearch","","VisSearch","","true","1","true","","","","","","","","","","","","","","","","","","","","","","","","","","","","","","",""
"","","","","","html-button-response","158","971995","0.0-152.0","39","male","972.2000000178814","VisSearch","","VisSearch","","true","1","true","","","","","","","","","","","","","","","","","","","","","","","","","","","","","","",""
"","","","","","html-keyboard-response","159","971996","0.0-153.0","39","male","null","","null","","","","","","","","","","","","vissearch-summary-calculation","1","944.0700000017881","","","","","","","","","","","","","","","","","","","","","",""
"","","","","","html-button-response","160","973104","0.0-154.0","39","male","1108","DSB_instruct","0","DSB_instruct","","","","","","","","","","","","","","","","","","","","","","","","","","","","","","","","","","",""
"","","","","","html-keyboard-response","161","982032","0.0-155.0","39","male","","DSB","","DSB 73847574","","","","","[7,3,8,4,7,5,7,4]","8","47574837","","","","","","","","","","","","","","","","","","","","","","","","","","","",""
"","","","","","html-button-response","162","1014161","0.0-156.0","39","male","1016670.7000000179","DSBrecall","47574837","DSBrecall","","true","","","","","","8","8","1","","","","","","","","","","","","","","","","","","","","","","","","",""
"","","","","","dsb-summary-calculation","163","1014164","0.0-157.0","39","male","null","","null","","","","","","","","","","","","","","","1","8","1","1016670.7000000179","","","","","","","","","","","","","","","","","",""
"","","","","","html-button-response","164","1015254","0.0-158.0","39","male","1089","image_instruct","0","image_instruct","","","","","","","","","","","","","","","","","","","","","","","","","","","","","","","","","","",""
"","","","","","html-keyboard-response","165","1030257","0.0-159.0","39","male","null","img6","null","img6","","","","","","","","","","","","","","","","","","3","2","","","","","","","","","","","","","","","",""
"","","","","","html-button-response","166","1034960","0.0-160.0","39","male","4702","DSB_instruct","0","DSB_instruct","","","","","","","","","","","","","","","","","","","","","","","","","","","","","","","","","","",""
"","","","","","html-keyboard-response","167","1043889","0.0-161.0","39","male","","DSB","","DSB 31809754","","","","","[3,1,8,0,9,7,5,4]","8","45790813","","","","","","","","","","","","","","","","","","","","","","","","","","","",""
"","","","","","html-button-response","168","1062134","0.0-162.0","39","male","1064643.300000012","DSBrecall","45790813","DSBrecall","","true","","","","","","8","8","1","","","","","","","","","","","","","","","","","","","","","","","","",""
"","","","","","dsb-summary-calculation","169","1062137","0.0-163.0","39","male","null","","null","","","","","","","","","","","","","","","","","","","","","1","8","1","1064643.300000012","","","","","","","","","","","",""
"","","","","","consolidated-trial-data","170","1062138","0.0-164.0","39","male","null","consolidated-trial-data","null","consolidated-trial-data","","","","","","","","","","","","","","1","8","1","","3","2","1","8","1","","0","4","39","1","944.0700000017881","1","6","","","","",""
"","","","","","html-button-response","171","1064976","0.0-165.0","39","male","2837","block message","0","","","","","","","","","","","","","","","","","","","","","","","","","","","","","","","","","","","",""
"","","","","","html-button-response","172","1066976","0.0-166.0","39","male","1999","VS_instruct","0","VS_instruct","","","","","","","","","","","","","","","","","","","","","","","","","","","","","","","","","","",""
"","","","","","html-button-response","173","1068089","0.0-167.0","39","male","1112.4000000059605","VisSearch","","VisSearch","","true","1","true","","","","","","","","","","","","","","","","","","","","","","","","","","","","","","",""
"","","","","","html-button-response","174","1068874","0.0-168.0","39","male","783.7999999821186","VisSearch","","VisSearch","","true","1","true","","","","","","","","","","","","","","","","","","","","","","","","","","","","","","",""
"","","","","","html-button-response","175","1070422","0.0-169.0","39","male","1546.0999999940395","VisSearch","","VisSearch","","true","1","true","","","","","","","","","","","","","","","","","","","","","","","","","","","","","","",""
"","","","","","html-button-response","176","1071126","0.0-170.0","39","male","703.0999999940395","VisSearch","","VisSearch","","true","1","true","","","","","","","","","","","","","","","","","","","","","","","","","","","","","","",""
"","","","","","html-button-response","177","1072371","0.0-171.0","39","male","1244.300000011921","VisSearch","","VisSearch","","true","1","true","","","","","","","","","","","","","","","","","","","","","","","","","","","","","","",""
"","","","","","html-button-response","178","1073332","0.0-172.0","39","male","960.2000000178814","VisSearch","","VisSearch","","true","1","true","","","","","","","","","","","","","","","","","","","","","","","","","","","","","","",""
"","","","","","html-button-response","179","1074231","0.0-173.0","39","male","897.5","VisSearch","","VisSearch","","true","1","true","","","","","","","","","","","","","","","","","","","","","","","","","","","","","","",""
"","","","","","html-button-response","180","1075580","0.0-174.0","39","male","1347.800000011921","VisSearch","","VisSearch","","true","1","true","","","","","","","","","","","","","","","","","","","","","","","","","","","","","","",""
"","","","","","html-button-response","181","1077962","0.0-175.0","39","male","2381.199999988079","VisSearch","","VisSearch","","true","1","true","","","","","","","","","","","","","","","","","","","","","","","","","","","","","","",""
"","","","","","html-button-response","182","1079236","0.0-176.0","39","male","1272.5999999940395","VisSearch","","VisSearch","","true","1","true","","","","","","","","","","","","","","","","","","","","","","","","","","","","","","",""
"","","","","","html-keyboard-response","183","1079238","0.0-177.0","39","male","null","","null","","","","","","","","","","","","vissearch-summary-calculation","1","1224.9","","","","","","","","","","","","","","","","","","","","","",""
"","","","","","html-button-response","184","1083020","0.0-178.0","39","male","3781","DSB_instruct","0","DSB_instruct","","","","","","","","","","","","","","","","","","","","","","","","","","","","","","","","","","",""
"","","","","","html-keyboard-response","185","1091950","0.0-179.0","39","male","","DSB","","DSB 97188930","","","","","[9,7,1,8,8,9,3,0]","8","03988179","","","","","","","","","","","","","","","","","","","","","","","","","","","",""
"","","","","","html-button-response","186","1124814","0.0-180.0","39","male","1127322.800000012","DSBrecall","08381979","DSBrecall","","false","","","","","","8","4","0.5","","","","","","","","","","","","","","","","","","","","","","","","",""
"","","","","","dsb-summary-calculation","187","1124817","0.0-181.0","39","male","null","","null","","","","","","","","","","","","","","","0","0","0.5","1127322.800000012","","","","","","","","","","","","","","","","","",""
"","","","","","html-button-response","188","1126018","0.0-182.0","39","male","1201","image_instruct","0","image_instruct","","","","","","","","","","","","","","","","","","","","","","","","","","","","","","","","","","",""
"","","","","","html-keyboard-response","189","1141021","0.0-183.0","39","male","null","img10","null","img10","","","","","","","","","","","","","","","","","","null","null","","","","","","","","","","","","","","","",""
"","","","","","html-button-response","190","1144206","0.0-184.0","39","male","3184","DSB_instruct","0","DSB_instruct","","","","","","","","","","","","","","","","","","","","","","","","","","","","","","","","","","",""
"","","","","","html-keyboard-response","191","1153135","0.0-185.0","39","male","","DSB","","DSB 28741833","","","","","[2,8,7,4,1,8,3,3]","8","33814782","","","","","","","","","","","","","","","","","","","","","","","","","","","",""
"","","","","","html-button-response","192","1174889","0.0-186.0","39","male","1177398.400000006","DSBrecall","33414782","DSBrecall","","false","","","","","","8","7","0.875","","","","","","","","","","","","","","","","","","","","","","","","",""
"","","","","","dsb-summary-calculation","193","1174892","0.0-187.0","39","male","null","","null","","","","","","","","","","","","","","","","","","","","","0","0","0.875","1177398.400000006","","","","","","","","","","","",""
"","","","","","consolidated-trial-data","194","1174893","0.0-188.0","39","male","null","consolidated-trial-data","null","consolidated-trial-data","","","","","","","","","","","","","","0","0","0.5","","null","null","0","0","0.875","","0","5","39","1","1224.9","1","10","","","","",""
"","","","","","html-button-response","195","1176284","0.0-189.0","39","male","1391","block message","0","","","","","","","","","","","","","","","","","","","","","","","","","","","","","","","","","","","",""
"","","","","","html-button-response","196","1177667","0.0-190.0","39","male","1382","VS_instruct","0","VS_instruct","","","","","","","","","","","","","","","","","","","","","","","","","","","","","","","","","","",""
"","","","","","html-button-response","197","1178704","0.0-191.0","39","male","1036.199999988079","VisSearch","","VisSearch","","true","1","true","","","","","","","","","","","","","","","","","","","","","","","","","","","","","","",""
"","","","","","html-button-response","198","1179649","0.0-192.0","39","male","944","VisSearch","","VisSearch","","true","1","true","","","","","","","","","","","","","","","","","","","","","","","","","","","","","","",""
"","","","","","html-button-response","199","1180533","0.0-193.0","39","male","882.9000000059605","VisSearch","","VisSearch","","true","1","true","","","","","","","","","","","","","","","","","","","","","","","","","","","","","","",""
"","","","","","html-button-response","200","1181522","0.0-194.0","39","male","988","VisSearch","","VisSearch","","true","1","true","","","","","","","","","","","","","","","","","","","","","","","","","","","","","","",""
"","","","","","html-button-response","201","1182407","0.0-195.0","39","male","883.6000000238419","VisSearch","","VisSearch","","true","1","true","","","","","","","","","","","","","","","","","","","","","","","","","","","","","","",""
"","","","","","html-button-response","202","1183462","0.0-196.0","39","male","1053.300000011921","VisSearch","","VisSearch","","true","1","true","","","","","","","","","","","","","","","","","","","","","","","","","","","","","","",""
"","","","","","html-button-response","203","1184521","0.0-197.0","39","male","1058.0999999940395","VisSearch","","VisSearch","","true","1","true","","","","","","","","","","","","","","","","","","","","","","","","","","","","","","",""
"","","","","","html-button-response","204","1185596","0.0-198.0","39","male","1074","VisSearch","","VisSearch","","true","1","true","","","","","","","","","","","","","","","","","","","","","","","","","","","","","","",""
"","","","","","html-button-response","205","1186629","0.0-199.0","39","male","1031.8999999761581","VisSearch","","VisSearch","","true","1","true","","","","","","","","","","","","","","","","","","","","","","","","","","","","","","",""
"","","","","","html-button-response","206","1187792","0.0-200.0","39","male","1161.199999988079","VisSearch","","VisSearch","","true","1","true","","","","","","","","","","","","","","","","","","","","","","","","","","","","","","",""
"","","","","","html-keyboard-response","207","1187795","0.0-201.0","39","male","null","","null","","","","","","","","","","","","vissearch-summary-calculation","1","1011.3199999988079","","","","","","","","","","","","","","","","","","","","","",""
"","","","","","html-button-response","208","1229036","0.0-202.0","39","male","41240","DSB_instruct","0","DSB_instruct","","","","","","","","","","","","","","","","","","","","","","","","","","","","","","","","","","",""
"","","","","","html-keyboard-response","209","1237959","0.0-203.0","39","male","","DSB","","DSB 64033938","","","","","[6,4,0,3,3,9,3,8]","8","83933046","","","","","","","","","","","","","","","","","","","","","","","","","","","",""
"","","","","","html-button-response","210","1258578","0.0-204.0","39","male","1261087.300000012","DSBrecall","83933046","DSBrecall","","true","","","","","","8","8","1","","","","","","","","","","","","","","","","","","","","","","","","",""
"","","","","","dsb-summary-calculation","211","1258581","0.0-205.0","39","male","null","","null","","","","","","","","","","","","","","","1","8","1","1261087.300000012","","","","","","","","","","","","","","","","","",""
"","","","","","html-button-response","212","1274128","0.0-206.0","39","male","15545","image_instruct","0","image_instruct","","","","","","","","","","","","","","","","","","","","","","","","","","","","","","","","","","",""
"","","","","","html-keyboard-response","213","1289131","0.0-207.0","39","male","null","img7","null","img7","","","","","","","","","","","","","","","","","","1","2","","","","","","","","","","","","","","","",""
"","","","","","html-button-response","214","1290755","0.0-208.0","39","male","1624","DSB_instruct","0","DSB_instruct","","","","","","","","","","","","","","","","","","","","","","","","","","","","","","","","","","",""
"","","","","","html-keyboard-response","215","1299681","0.0-209.0","39","male","","DSB","","DSB 08146364","","","","","[0,8,1,4,6,3,6,4]","8","46364180","","","","","","","","","","","","","","","","","","","","","","","","","","","",""
"","","","","","html-button-response","216","1317712","0.0-210.0","39","male","1320221.300000012","DSBrecall","41804616","DSBrecall","","false","","","","","","8","2","0.25","","","","","","","","","","","","","","","","","","","","","","","","",""
"","","","","","dsb-summary-calculation","217","1317715","0.0-211.0","39","male","null","","null","","","","","","","","","","","","","","","","","","","","","0","0","0.25","1320221.300000012","","","","","","","","","","","",""
"","","","","","consolidated-trial-data","218","1317716","0.0-212.0","39","male","null","consolidated-trial-data","null","consolidated-trial-data","","","","","","","","","","","","","","1","8","1","","1","2","0","0","0.25","","0","6","39","1","1011.3199999988079","1","7","","","","",""
"","","","","","html-button-response","219","1319291","0.0-213.0","39","male","1575","block message","0","","","","","","","","","","","","","","","","","","","","","","","","","","","","","","","","","","","",""
"","","","","","html-button-response","220","1320545","0.0-214.0","39","male","1253","VS_instruct","0","VS_instruct","","","","","","","","","","","","","","","","","","","","","","","","","","","","","","","","","","",""
"","","","","","html-button-response","221","1321464","0.0-215.0","39","male","917.2999999821186","VisSearch","","VisSearch","","true","1","true","","","","","","","","","","","","","","","","","","","","","","","","","","","","","","",""
"","","","","","html-button-response","222","1322341","0.0-216.0","39","male","876.4000000059605","VisSearch","","VisSearch","","true","1","true","","","","","","","","","","","","","","","","","","","","","","","","","","","","","","",""
"","","","","","html-button-response","223","1323266","0.0-217.0","39","male","923.5999999940395","VisSearch","","VisSearch","","true","1","true","","","","","","","","","","","","","","","","","","","","","","","","","","","","","","",""
"","","","","","html-button-response","224","1324102","0.0-218.0","39","male","834.8000000119209","VisSearch","","VisSearch","","true","1","true","","","","","","","","","","","","","","","","","","","","","","","","","","","","","","",""
"","","","","","html-button-response","225","1325137","0.0-219.0","39","male","1034.4000000059605","VisSearch","","VisSearch","","true","1","true","","","","","","","","","","","","","","","","","","","","","","","","","","","","","","",""
"","","","","","html-button-response","226","1325970","0.0-220.0","39","male","831.0999999940395","VisSearch","","VisSearch","","true","1","true","","","","","","","","","","","","","","","","","","","","","","","","","","","","","","",""
"","","","","","html-button-response","227","1326976","0.0-221.0","39","male","1004.6999999880791","VisSearch","","VisSearch","","true","1","true","","","","","","","","","","","","","","","","","","","","","","","","","","","","","","",""
"","","","","","html-button-response","228","1327918","0.0-222.0","39","male","941.3999999761581","VisSearch","","VisSearch","","true","1","true","","","","","","","","","","","","","","","","","","","","","","","","","","","","","","",""
"","","","","","html-button-response","229","1328965","0.0-223.0","39","male","1046.2999999821186","VisSearch","","VisSearch","","true","1","true","","","","","","","","","","","","","","","","","","","","","","","","","","","","","","",""
"","","","","","html-button-response","230","1329879","0.0-224.0","39","male","912.8999999761581","VisSearch","","VisSearch","","true","1","true","","","","","","","","","","","","","","","","","","","","","","","","","","","","","","",""
"","","","","","html-keyboard-response","231","1329886","0.0-225.0","39","male","null","","null","","","","","","","","","","","","vissearch-summary-calculation","1","932.2899999916553","","","","","","","","","","","","","","","","","","","","","",""
"","","","","","html-button-response","232","1330884","0.0-226.0","39","male","997","DSB_instruct","0","DSB_instruct","","","","","","","","","","","","","","","","","","","","","","","","","","","","","","","","","","",""
"","","","","","html-keyboard-response","233","1339808","0.0-227.0","39","male","","DSB","","DSB 66158282","","","","","[6,6,1,5,8,2,8,2]","8","28285166","","","","","","","","","","","","","","","","","","","","","","","","","","","",""
"","","","","","html-button-response","234","1357237","0.0-228.0","39","male","1359746.1000000238","DSBrecall","28285166","DSBrecall","","true","","","","","","8","8","1","","","","","","","","","","","","","","","","","","","","","","","","",""
"","","","","","dsb-summary-calculation","235","1357240","0.0-229.0","39","male","null","","null","","","","","","","","","","","","","","","1","8","1","1359746.1000000238","","","","","","","","","","","","","","","","","",""
"","","","","","html-button-response","236","1358489","0.0-230.0","39","male","1248","image_instruct","0","image_instruct","","","","","","","","","","","","","","","","","","","","","","","","","","","","","","","","","","",""
"","","","","","html-keyboard-response","237","1373492","0.0-231.0","39","male","null","img5","null","img5","","","","","","","","","","","","","","","","","","2","1","","","","","","","","","","","","","","","",""
"","","","","","html-button-response","238","1374713","0.0-232.0","39","male","1220","DSB_instruct","0","DSB_instruct","","","","","","","","","","","","","","","","","","","","","","","","","","","","","","","","","","",""
"","","","","","html-keyboard-response","239","1383642","0.0-233.0","39","male","","DSB","","DSB 70484751","","","","","[7,0,4,8,4,7,5,1]","8","15748407","","","","","","","","","","","","","","","","","","","","","","","","","","","",""
"","","","","","html-button-response","240","1407091","0.0-234.0","39","male","1409599.6000000238","DSBrecall","15748470","DSBrecall","","false","","","","","","8","6","0.75","","","","","","","","","","","","","","","","","","","","","","","","",""
"","","","","","dsb-summary-calculation","241","1407094","0.0-235.0","39","male","null","","null","","","","","","","","","","","","","","","","","","","","","0","0","0.75","1409599.6000000238","","","","","","","","","","","",""
"","","","","","consolidated-trial-data","242","1407095","0.0-236.0","39","male","null","consolidated-trial-data","null","consolidated-trial-data","","","","","","","","","","","","","","1","8","1","","2","1","0","0","0.75","","0","7","39","1","932.2899999916553","1","5","","","","",""
"","","","","","html-button-response","243","1408533","0.0-237.0","39","male","1438","block message","0","","","","","","","","","","","","","","","","","","","","","","","","","","","","","","","","","","","",""
"","","","","","html-button-response","244","1409591","0.0-238.0","39","male","1057","VS_instruct","0","VS_instruct","","","","","","","","","","","","","","","","","","","","","","","","","","","","","","","","","","",""
"","","","","","html-button-response","245","1410693","0.0-239.0","39","male","1100.9000000059605","VisSearch","","VisSearch","","true","1","true","","","","","","","","","","","","","","","","","","","","","","","","","","","","","","",""
"","","","","","html-button-response","246","1411715","0.0-240.0","39","male","1021.7000000178814","VisSearch","","VisSearch","","true","1","true","","","","","","","","","","","","","","","","","","","","","","","","","","","","","","",""
"","","","","","html-button-response","247","1412648","0.0-241.0","39","male","932.1000000238419","VisSearch","","VisSearch","","true","1","true","","","","","","","","","","","","","","","","","","","","","","","","","","","","","","",""
"","","","","","html-button-response","248","1413551","0.0-242.0","39","male","902","VisSearch","","VisSearch","","true","1","true","","","","","","","","","","","","","","","","","","","","","","","","","","","","","","",""
"","","","","","html-button-response","249","1414465","0.0-243.0","39","male","912.5999999940395","VisSearch","","VisSearch","","true","1","true","","","","","","","","","","","","","","","","","","","","","","","","","","","","","","",""
"","","","","","html-button-response","250","1415412","0.0-244.0","39","male","946.5","VisSearch","","VisSearch","","true","1","true","","","","","","","","","","","","","","","","","","","","","","","","","","","","","","",""
"","","","","","html-button-response","251","1416245","0.0-245.0","39","male","831.7000000178814","VisSearch","","VisSearch","","true","1","true","","","","","","","","","","","","","","","","","","","","","","","","","","","","","","",""
"","","","","","html-button-response","252","1417349","0.0-246.0","39","male","1102.5","VisSearch","","VisSearch","","true","1","true","","","","","","","","","","","","","","","","","","","","","","","","","","","","","","",""
"","","","","","html-button-response","253","1418286","0.0-247.0","39","male","936.5","VisSearch","","VisSearch","","true","1","true","","","","","","","","","","","","","","","","","","","","","","","","","","","","","","",""
"","","","","","html-button-response","254","1419387","0.0-248.0","39","male","1099","VisSearch","","VisSearch","","true","1","true","","","","","","","","","","","","","","","","","","","","","","","","","","","","","","",""
"","","","","","html-keyboard-response","255","1419394","0.0-249.0","39","male","null","","null","","","","","","","","","","","","vissearch-summary-calculation","1","978.5500000059604","","","","","","","","","","","","","","","","","","","","","",""
"","","","","","html-button-response","256","1420729","0.0-250.0","39","male","1334","DSB_instruct","0","DSB_instruct","","","","","","","","","","","","","","","","","","","","","","","","","","","","","","","","","","",""
"","","","","","html-keyboard-response","257","1429658","0.0-251.0","39","male","","DSB","","DSB 01600970","","","","","[0,1,6,0,0,9,7,0]","8","07900610","","","","","","","","","","","","","","","","","","","","","","","","","","","",""
"","","","","","html-button-response","258","1452039","0.0-252.0","39","male","1454547.1000000238","DSBrecall","07900690","DSBrecall","","false","","","","","","8","7","0.875","","","","","","","","","","","","","","","","","","","","","","","","",""
"","","","","","dsb-summary-calculation","259","1452041","0.0-253.0","39","male","null","","null","","","","","","","","","","","","","","","0","0","0.875","1454547.1000000238","","","","","","","","","","","","","","","","","",""
"","","","","","html-button-response","260","1459293","0.0-254.0","39","male","7251","image_instruct","0","image_instruct","","","","","","","","","","","","","","","","","","","","","","","","","","","","","","","","","","",""
"","","","","","html-keyboard-response","261","1474297","0.0-255.0","39","male","null","img4","null","img4","","","","","","","","","","","","","","","","","","1","2","","","","","","","","","","","","","","","",""
"","","","","","html-button-response","262","1476709","0.0-256.0","39","male","2411","DSB_instruct","0","DSB_instruct","","","","","","","","","","","","","","","","","","","","","","","","","","","","","","","","","","",""
"","","","","","html-keyboard-response","263","1485638","0.0-257.0","39","male","","DSB","","DSB 84031004","","","","","[8,4,0,3,1,0,0,4]","8","40013048","","","","","","","","","","","","","","","","","","","","","","","","","","","",""
"","","","","","html-button-response","264","1530119","0.0-258.0","39","male","1532627.400000006","DSBrecall","40013478","DSBrecall","","false","","","","","","8","6","0.75","","","","","","","","","","","","","","","","","","","","","","","","",""
"","","","","","dsb-summary-calculation","265","1530120","0.0-259.0","39","male","null","","null","","","","","","","","","","","","","","","","","","","","","0","0","0.75","1532627.400000006","","","","","","","","","","","",""
"","","","","","consolidated-trial-data","266","1530120","0.0-260.0","39","male","null","consolidated-trial-data","null","consolidated-trial-data","","","","","","","","","","","","","","0","0","0.875","","1","2","0","0","0.75","","0","8","39","1","978.5500000059604","1","4","","","","",""
"","","","","","html-button-response","267","1532278","0.0-261.0","39","male","2157","block message","0","","","","","","","","","","","","","","","","","","","","","","","","","","","","","","","","","","","",""
"","","","","","html-button-response","268","1533103","0.0-262.0","39","male","824","VS_instruct","0","VS_instruct","","","","","","","","","","","","","","","","","","","","","","","","","","","","","","","","","","",""
"","","","","","html-button-response","269","1534179","0.0-263.0","39","male","1075.0999999940395","VisSearch","","VisSearch","","true","1","true","","","","","","","","","","","","","","","","","","","","","","","","","","","","","","",""
"","","","","","html-button-response","270","1535986","0.0-264.0","39","male","1806.199999988079","VisSearch","","VisSearch","","true","1","true","","","","","","","","","","","","","","","","","","","","","","","","","","","","","","",""
"","","","","","html-button-response","271","1536952","0.0-265.0","39","male","964.8999999761581","VisSearch","","VisSearch","","true","1","true","","","","","","","","","","","","","","","","","","","","","","","","","","","","","","",""
"","","","","","html-button-response","272","1537949","0.0-266.0","39","male","995.6999999880791","VisSearch","","VisSearch","","true","1","true","","","","","","","","","","","","","","","","","","","","","","","","","","","","","","",""
"","","","","","html-button-response","273","1539007","0.0-267.0","39","male","1056.4000000059605","VisSearch","","VisSearch","","true","1","true","","","","","","","","","","","","","","","","","","","","","","","","","","","","","","",""
"","","","","","html-button-response","274","1539861","0.0-268.0","39","male","852.6000000238419","VisSearch","","VisSearch","","true","1","true","","","","","","","","","","","","","","","","","","","","","","","","","","","","","","",""
"","","","","","html-button-response","275","1540757","0.0-269.0","39","male","895.4000000059605","VisSearch","","VisSearch","","true","1","true","","","","","","","","","","","","","","","","","","","","","","","","","","","","","","",""
"","","","","","html-button-response","276","1541572","0.0-270.0","39","male","812.9000000059605","VisSearch","","VisSearch","","true","1","true","","","","","","","","","","","","","","","","","","","","","","","","","","","","","","",""
"","","","","","html-button-response","277","1542636","0.0-271.0","39","male","1063.4000000059605","VisSearch","","VisSearch","","true","1","true","","","","","","","","","","","","","","","","","","","","","","","","","","","","","","",""
"","","","","","html-button-response","278","1543844","0.0-272.0","39","male","1207.1000000238419","VisSearch","","VisSearch","","true","1","true","","","","","","","","","","","","","","","","","","","","","","","","","","","","","","",""
"","","","","","html-keyboard-response","279","1543852","0.0-273.0","39","male","null","","null","","","","","","","","","","","","vissearch-summary-calculation","1","1072.970000001788","","","","","","","","","","","","","","","","","","","","","",""
"","","","","","html-button-response","280","1545095","0.0-274.0","39","male","1241","DSB_instruct","0","DSB_instruct","","","","","","","","","","","","","","","","","","","","","","","","","","","","","","","","","","",""
"","","","","","html-keyboard-response","281","1554022","0.0-275.0","39","male","","DSB","","DSB 06721322","","","","","[0,6,7,2,1,3,2,2]","8","22312760","","","","","","","","","","","","","","","","","","","","","","","","","","","",""
"","","","","","html-button-response","282","1569816","0.0-276.0","39","male","1572323.900000006","DSBrecall","22312760","DSBrecall","","true","","","","","","8","8","1","","","","","","","","","","","","","","","","","","","","","","","","",""
"","","","","","dsb-summary-calculation","283","1569818","0.0-277.0","39","male","null","","null","","","","","","","","","","","","","","","1","8","1","1572323.900000006","","","","","","","","","","","","","","","","","",""
"","","","","","html-button-response","284","1571042","0.0-278.0","39","male","1222","image_instruct","0","image_instruct","","","","","","","","","","","","","","","","","","","","","","","","","","","","","","","","","","",""
"","","","","","html-keyboard-response","285","1586045","0.0-279.0","39","male","null","img8","null","img8","","","","","","","","","","","","","","","","","","2","2","","","","","","","","","","","","","","","",""
"","","","","","html-button-response","286","1587824","0.0-280.0","39","male","1778","DSB_instruct","0","DSB_instruct","","","","","","","","","","","","","","","","","","","","","","","","","","","","","","","","","","",""
"","","","","","html-keyboard-response","287","1596752","0.0-281.0","39","male","","DSB","","DSB 19137800","","","","","[1,9,1,3,7,8,0,0]","8","00873191","","","","","","","","","","","","","","","","","","","","","","","","","","","",""
"","","","","","html-button-response","288","1612060","0.0-282.0","39","male","1614568.1000000238","DSBrecall","00873191","DSBrecall","","true","","","","","","8","8","1","","","","","","","","","","","","","","","","","","","","","","","","",""
"","","","","","dsb-summary-calculation","289","1612063","0.0-283.0","39","male","null","","null","","","","","","","","","","","","","","","","","","","","","1","8","1","1614568.1000000238","","","","","","","","","","","",""
"","","","","","consolidated-trial-data","290","1612064","0.0-284.0","39","male","null","consolidated-trial-data","null","consolidated-trial-data","","","","","","","","","","","","","","1","8","1","","2","2","1","8","1","","0","9","39","1","1072.970000001788","1","8","","","","",""
"","","","","","html-button-response","291","1617481","0.0-285.0","39","male","5416","block message","0","","","","","","","","","","","","","","","","","","","","","","","","","","","","","","","","","","","",""
"","","","","","html-button-response","292","1618479","0.0-286.0","39","male","996","VS_instruct","0","VS_instruct","","","","","","","","","","","","","","","","","","","","","","","","","","","","","","","","","","",""
"","","","","","html-button-response","293","1620982","0.0-287.0","39","male","null","VisSearch","","VisSearch","","false","2","true","","","","","","","","","","","","","","","","","","","","","","","","","","","","","","",""
"","","","","","html-button-response","294","1622748","0.0-288.0","39","male","1765","VisSearch","","VisSearch","","true","2","true","","","","","","","","","","","","","","","","","","","","","","","","","","","","","","",""
"","","","","","html-button-response","295","1624181","0.0-289.0","39","male","1432.5","VisSearch","","VisSearch","","true","2","true","","","","","","","","","","","","","","","","","","","","","","","","","","","","","","",""
"","","","","","html-button-response","296","1625276","0.0-290.0","39","male","1093","VisSearch","","VisSearch","","true","2","true","","","","","","","","","","","","","","","","","","","","","","","","","","","","","","",""
"","","","","","html-button-response","297","1627777","0.0-291.0","39","male","null","VisSearch","","VisSearch","","false","2","true","","","","","","","","","","","","","","","","","","","","","","","","","","","","","","",""
"","","","","","html-button-response","298","1630278","0.0-292.0","39","male","null","VisSearch","","VisSearch","","false","2","true","","","","","","","","","","","","","","","","","","","","","","","","","","","","","","",""
"","","","","","html-button-response","299","1632780","0.0-293.0","39","male","null","VisSearch","","VisSearch","","false","2","true","","","","","","","","","","","","","","","","","","","","","","","","","","","","","","",""
"","","","","","html-button-response","300","1634136","0.0-294.0","39","male","1355","VisSearch","","VisSearch","","true","2","true","","","","","","","","","","","","","","","","","","","","","","","","","","","","","","",""
"","","","","","html-button-response","301","1636638","0.0-295.0","39","male","null","VisSearch","","VisSearch","","false","2","true","","","","","","","","","","","","","","","","","","","","","","","","","","","","","","",""
"","","","","","html-button-response","302","1637972","0.0-296.0","39","male","1333.5999999940395","VisSearch","","VisSearch","","true","2","true","","","","","","","","","","","","","","","","","","","","","","","","","","","","","","",""
"","","","","","html-keyboard-response","303","1637977","0.0-297.0","39","male","null","","null","","","","","","","","","","","","vissearch-summary-calculation","0.5","1395.8199999988078","","","","","","","","","","","","","","","","","","","","","",""
"","","","","","html-button-response","304","1643777","0.0-298.0","39","male","5798","DSB_instruct","0","DSB_instruct","","","","","","","","","","","","","","","","","","","","","","","","","","","","","","","","","","",""
"","","","","","html-keyboard-response","305","1652708","0.0-299.0","39","male","","DSB","","DSB 05075663","","","","","[0,5,0,7,5,6,6,3]","8","36657050","","","","","","","","","","","","","","","","","","","","","","","","","","","",""
"","","","","","html-button-response","306","1666779","0.0-300.0","39","male","1669287.300000012","DSBrecall","36657050","DSBrecall","","true","","","","","","8","8","1","","","","","","","","","","","","","","","","","","","","","","","","",""
"","","","","","dsb-summary-calculation","307","1666782","0.0-301.0","39","male","null","","null","","","","","","","","","","","","","","","1","8","1","1669287.300000012","","","","","","","","","","","","","","","","","",""
"","","","","","html-button-response","308","1668236","0.0-302.0","39","male","1453","image_instruct","0","image_instruct","","","","","","","","","","","","","","","","","","","","","","","","","","","","","","","","","","",""
"","","","","","html-keyboard-response","309","1683239","0.0-303.0","39","male","null","img7","null","img7","","","","","","","","","","","","","","","","","","1","2","","","","","","","","","","","","","","","",""
"","","","","","html-button-response","310","1687337","0.0-304.0","39","male","4097","DSB_instruct","0","DSB_instruct","","","","","","","","","","","","","","","","","","","","","","","","","","","","","","","","","","",""
"","","","","","html-keyboard-response","311","1696265","0.0-305.0","39","male","","DSB","","DSB 21938926","","","","","[2,1,9,3,8,9,2,6]","8","62983912","","","","","","","","","","","","","","","","","","","","","","","","","","","",""
"","","","","","html-button-response","312","1712614","0.0-306.0","39","male","1715121.900000006","DSBrecall","62183192","DSBrecall","","false","","","","","","8","5","0.625","","","","","","","","","","","","","","","","","","","","","","","","",""
"","","","","","dsb-summary-calculation","313","1712617","0.0-307.0","39","male","null","","null","","","","","","","","","","","","","","","","","","","","","0","0","0.625","1715121.900000006","","","","","","","","","","","",""
"","","","","","consolidated-trial-data","314","1712618","0.0-308.0","39","male","null","consolidated-trial-data","null","consolidated-trial-data","","","","","","","","","","","","","","1","8","1","","1","2","0","0","0.625","","1","0","39","2","1395.8199999988078","0.5","7","","","","",""
"","","","","","html-button-response","315","1715464","0.0-309.0","39","male","2845","block message","0","","","","","","","","","","","","","","","","","","","","","","","","","","","","","","","","","","","",""
"","","","","","html-button-response","316","1716570","0.0-310.0","39","male","1105","VS_instruct","0","VS_instruct","","","","","","","","","","","","","","","","","","","","","","","","","","","","","","","","","","",""
"","","","","","html-button-response","317","1717566","0.0-311.0","39","male","994.1999999880791","VisSearch","","VisSearch","","true","2","true","","","","","","","","","","","","","","","","","","","","","","","","","","","","","","",""
"","","","","","html-button-response","318","1719023","0.0-312.0","39","male","1456","VisSearch","","VisSearch","","true","2","true","","","","","","","","","","","","","","","","","","","","","","","","","","","","","","",""
"","","","","","html-button-response","319","1720325","0.0-313.0","39","male","1301.9000000059605","VisSearch","","VisSearch","","true","2","true","","","","","","","","","","","","","","","","","","","","","","","","","","","","","","",""
"","","","","","html-button-response","320","1721608","0.0-314.0","39","male","1281","VisSearch","","VisSearch","","true","2","true","","","","","","","","","","","","","","","","","","","","","","","","","","","","","","",""
"","","","","","html-button-response","321","1724110","0.0-315.0","39","male","null","VisSearch","","VisSearch","","false","2","true","","","","","","","","","","","","","","","","","","","","","","","","","","","","","","",""
"","","","","","html-button-response","322","1726612","0.0-316.0","39","male","null","VisSearch","","VisSearch","","false","2","true","","","","","","","","","","","","","","","","","","","","","","","","","","","","","","",""
"","","","","","html-button-response","323","1728057","0.0-317.0","39","male","1443.5999999940395","VisSearch","","VisSearch","","true","2","true","","","","","","","","","","","","","","","","","","","","","","","","","","","","","","",""
"","","","","","html-button-response","324","1729832","0.0-318.0","39","male","1773.800000011921","VisSearch","","VisSearch","","true","2","true","","","","","","","","","","","","","","","","","","","","","","","","","","","","","","",""
"","","","","","html-button-response","325","1731781","0.0-319.0","39","male","1948.800000011921","VisSearch","","VisSearch","","true","2","true","","","","","","","","","","","","","","","","","","","","","","","","","","","","","","",""
"","","","","","html-button-response","326","1732882","0.0-320.0","39","male","1099.9000000059605","VisSearch","","VisSearch","","true","2","true","","","","","","","","","","","","","","","","","","","","","","","","","","","","","","",""
"","","","","","html-keyboard-response","327","1732890","0.0-321.0","39","male","null","","null","","","","","","","","","","","","vissearch-summary-calculation","0.8","1412.4000000022352","","","","","","","","","","","","","","","","","","","","","",""
"","","","","","html-button-response","328","1734516","0.0-322.0","39","male","1625","DSB_instruct","0","DSB_instruct","","","","","","","","","","","","","","","","","","","","","","","","","","","","","","","","","","",""
"","","","","","html-keyboard-response","329","1743446","0.0-323.0","39","male","","DSB","","DSB 30535856","","","","","[3,0,5,3,5,8,5,6]","8","65853503","","","","","","","","","","","","","","","","","","","","","","","","","","","",""
"","","","","","html-button-response","330","1762311","0.0-324.0","39","male","1764819.1000000238","DSBrecall","65853503","DSBrecall","","true","","","","","","8","8","1","","","","","","","","","","","","","","","","","","","","","","","","",""
"","","","","","dsb-summary-calculation","331","1762314","0.0-325.0","39","male","null","","null","","","","","","","","","","","","","","","1","8","1","1764819.1000000238","","","","","","","","","","","","","","","","","",""
"","","","","","html-button-response","332","1763930","0.0-326.0","39","male","1615","image_instruct","0","image_instruct","","","","","","","","","","","","","","","","","","","","","","","","","","","","","","","","","","",""
"","","","","","html-keyboard-response","333","1778933","0.0-327.0","39","male","null","img4","null","img4","","","","","","","","","","","","","","","","","","1","2","","","","","","","","","","","","","","","",""
"","","","","","html-button-response","334","1780573","0.0-328.0","39","male","1639","DSB_instruct","0","DSB_instruct","","","","","","","","","","","","","","","","","","","","","","","","","","","","","","","","","","",""
"","","","","","html-keyboard-response","335","1789503","0.0-329.0","39","male","","DSB","","DSB 61258325","","","","","[6,1,2,5,8,3,2,5]","8","52385216","","","","","","","","","","","","","","","","","","","","","","","","","","","",""
"","","","","","html-button-response","336","1807334","0.0-330.0","39","male","1809842","DSBrecall","52185216","DSBrecall","","false","","","","","","8","7","0.875","","","","","","","","","","","","","","","","","","","","","","","","",""
"","","","","","dsb-summary-calculation","337","1807337","0.0-331.0","39","male","null","","null","","","","","","","","","","","","","","","","","","","","","0","0","0.875","1809842","","","","","","","","","","","",""
"","","","","","consolidated-trial-data","338","1807338","0.0-332.0","39","male","null","consolidated-trial-data","null","consolidated-trial-data","","","","","","","","","","","","","","1","8","1","","1","2","0","0","0.875","","1","1","39","2","1412.4000000022352","0.8","4","","","","",""
"","","","","","html-button-response","339","1808813","0.0-333.0","39","male","1474","block message","0","","","","","","","","","","","","","","","","","","","","","","","","","","","","","","","","","","","",""
"","","","","","html-button-response","340","1810169","0.0-334.0","39","male","1355","VS_instruct","0","VS_instruct","","","","","","","","","","","","","","","","","","","","","","","","","","","","","","","","","","",""
"","","","","","html-button-response","341","1812395","0.0-335.0","39","male","2224.699999988079","VisSearch","","VisSearch","","true","2","true","","","","","","","","","","","","","","","","","","","","","","","","","","","","","","",""
"","","","","","html-button-response","342","1813331","0.0-336.0","39","male","934.8000000119209","VisSearch","","VisSearch","","true","2","true","","","","","","","","","","","","","","","","","","","","","","","","","","","","","","",""
"","","","","","html-button-response","343","1815030","0.0-337.0","39","male","1698.300000011921","VisSearch","","VisSearch","","true","2","true","","","","","","","","","","","","","","","","","","","","","","","","","","","","","","",""
"","","","","","html-button-response","344","1817533","0.0-338.0","39","male","null","VisSearch","","VisSearch","","false","2","true","","","","","","","","","","","","","","","","","","","","","","","","","","","","","","",""
"","","","","","html-button-response","345","1818725","0.0-339.0","39","male","1190.9000000059605","VisSearch","","VisSearch","","true","2","true","","","","","","","","","","","","","","","","","","","","","","","","","","","","","","",""
"","","","","","html-button-response","346","1820086","0.0-340.0","39","male","1359.9000000059605","VisSearch","","VisSearch","","true","2","true","","","","","","","","","","","","","","","","","","","","","","","","","","","","","","",""
"","","","","","html-button-response","347","1820999","0.0-341.0","39","male","912.5","VisSearch","","VisSearch","","true","2","true","","","","","","","","","","","","","","","","","","","","","","","","","","","","","","",""
"","","","","","html-button-response","348","1821790","0.0-342.0","39","male","789.6999999880791","VisSearch","","VisSearch","","true","2","true","","","","","","","","","","","","","","","","","","","","","","","","","","","","","","",""
"","","","","","html-button-response","349","1824293","0.0-343.0","39","male","null","VisSearch","","VisSearch","","false","2","true","","","","","","","","","","","","","","","","","","","","","","","","","","","","","","",""
"","","","","","html-button-response","350","1826327","0.0-344.0","39","male","2032.7000000178814","VisSearch","","VisSearch","","true","2","true","","","","","","","","","","","","","","","","","","","","","","","","","","","","","","",""
"","","","","","html-keyboard-response","351","1826331","0.0-345.0","39","male","null","","null","","","","","","","","","","","","vissearch-summary-calculation","0.8","1392.9375000037253","","","","","","","","","","","","","","","","","","","","","",""
"","","","","","html-button-response","352","1827458","0.0-346.0","39","male","1126","DSB_instruct","0","DSB_instruct","","","","","","","","","","","","","","","","","","","","","","","","","","","","","","","","","","",""
"","","","","","html-keyboard-response","353","1836386","0.0-347.0","39","male","","DSB","","DSB 16273172","","","","","[1,6,2,7,3,1,7,2]","8","27137261","","","","","","","","","","","","","","","","","","","","","","","","","","","",""
"","","","","","html-button-response","354","1871619","0.0-348.0","39","male","1874126.7000000179","DSBrecall","27137261","DSBrecall","","true","","","","","","8","8","1","","","","","","","","","","","","","","","","","","","","","","","","",""
"","","","","","dsb-summary-calculation","355","1871622","0.0-349.0","39","male","null","","null","","","","","","","","","","","","","","","1","8","1","1874126.7000000179","","","","","","","","","","","","","","","","","",""
"","","","","","html-button-response","356","1872676","0.0-350.0","39","male","1053","image_instruct","0","image_instruct","","","","","","","","","","","","","","","","","","","","","","","","","","","","","","","","","","",""
"","","","","","html-keyboard-response","357","1887680","0.0-351.0","39","male","null","img6","null","img6","","","","","","","","","","","","","","","","","","3","2","","","","","","","","","","","","","","","",""
"","","","","","html-button-response","358","1889942","0.0-352.0","39","male","2262","DSB_instruct","0","DSB_instruct","","","","","","","","","","","","","","","","","","","","","","","","","","","","","","","","","","",""
"","","","","","html-keyboard-response","359","1898873","0.0-353.0","39","male","","DSB","","DSB 79220410","","","","","[7,9,2,2,0,4,1,0]","8","01402297","","","","","","","","","","","","","","","","","","","","","","","","","","","",""
"","","","","","html-button-response","360","1917184","0.0-354.0","39","male","1919691.2000000179","DSBrecall","01402997","DSBrecall","","false","","","","","","8","7","0.875","","","","","","","","","","","","","","","","","","","","","","","","",""
"","","","","","dsb-summary-calculation","361","1917186","0.0-355.0","39","male","null","","null","","","","","","","","","","","","","","","","","","","","","0","0","0.875","1919691.2000000179","","","","","","","","","","","",""
"","","","","","consolidated-trial-data","362","1917187","0.0-356.0","39","male","null","consolidated-trial-data","null","consolidated-trial-data","","","","","","","","","","","","","","1","8","1","","3","2","0","0","0.875","","1","2","39","2","1392.9375000037253","0.8","6","","","","",""
"","","","","","html-button-response","363","1919022","0.0-357.0","39","male","1834","block message","0","","","","","","","","","","","","","","","","","","","","","","","","","","","","","","","","","","","",""
"","","","","","html-button-response","364","1920209","0.0-358.0","39","male","1186","VS_instruct","0","VS_instruct","","","","","","","","","","","","","","","","","","","","","","","","","","","","","","","","","","",""
"","","","","","html-button-response","365","1922712","0.0-359.0","39","male","null","VisSearch","","VisSearch","","false","2","true","","","","","","","","","","","","","","","","","","","","","","","","","","","","","","",""
"","","","","","html-button-response","366","1924384","0.0-360.0","39","male","1671.4000000059605","VisSearch","","VisSearch","","true","2","true","","","","","","","","","","","","","","","","","","","","","","","","","","","","","","",""
"","","","","","html-button-response","367","1926887","0.0-361.0","39","male","null","VisSearch","","VisSearch","","false","2","true","","","","","","","","","","","","","","","","","","","","","","","","","","","","","","",""
"","","","","","html-button-response","368","1928340","0.0-362.0","39","male","1452.5","VisSearch","","VisSearch","","true","2","true","","","","","","","","","","","","","","","","","","","","","","","","","","","","","","",""
"","","","","","html-button-response","369","1930460","0.0-363.0","39","male","2118.600000023842","VisSearch","","VisSearch","","true","2","true","","","","","","","","","","","","","","","","","","","","","","","","","","","","","","",""
"","","","","","html-button-response","370","1932635","0.0-364.0","39","male","2173.2000000178814","VisSearch","","VisSearch","","true","2","true","","","","","","","","","","","","","","","","","","","","","","","","","","","","","","",""
"","","","","","html-button-response","371","1933986","0.0-365.0","39","male","1349.5","VisSearch","","VisSearch","","true","2","true","","","","","","","","","","","","","","","","","","","","","","","","","","","","","","",""
"","","","","","html-button-response","372","1935005","0.0-366.0","39","male","1018.3000000119209","VisSearch","","VisSearch","","true","2","true","","","","","","","","","","","","","","","","","","","","","","","","","","","","","","",""
"","","","","","html-button-response","373","1937507","0.0-367.0","39","male","null","VisSearch","","VisSearch","","false","2","true","","","","","","","","","","","","","","","","","","","","","","","","","","","","","","",""
"","","","","","html-button-response","374","1938935","0.0-368.0","39","male","1426.699999988079","VisSearch","","VisSearch","","true","2","true","","","","","","","","","","","","","","","","","","","","","","","","","","","","","","",""
"","","","","","html-keyboard-response","375","1938943","0.0-369.0","39","male","null","","null","","","","","","","","","","","","vissearch-summary-calculation","0.7","1601.457142863955","","","","","","","","","","","","","","","","","","","","","",""
"","","","","","html-button-response","376","1940344","0.0-370.0","39","male","1400","DSB_instruct","0","DSB_instruct","","","","","","","","","","","","","","","","","","","","","","","","","","","","","","","","","","",""
"","","","","","html-keyboard-response","377","1949271","0.0-371.0","39","male","","DSB","","DSB 05073556","","","","","[0,5,0,7,3,5,5,6]","8","65537050","","","","","","","","","","","","","","","","","","","","","","","","","","","",""
"","","","","","html-button-response","378","1963896","0.0-372.0","39","male","1966404.2000000179","DSBrecall","65537050","DSBrecall","","true","","","","","","8","8","1","","","","","","","","","","","","","","","","","","","","","","","","",""
"","","","","","dsb-summary-calculation","379","1963899","0.0-373.0","39","male","null","","null","","","","","","","","","","","","","","","1","8","1","1966404.2000000179","","","","","","","","","","","","","","","","","",""
"","","","","","html-button-response","380","1965428","0.0-374.0","39","male","1527","image_instruct","0","image_instruct","","","","","","","","","","","","","","","","","","","","","","","","","","","","","","","","","","",""
"","","","","","html-keyboard-response","381","1980431","0.0-375.0","39","male","null","img9","null","img9","","","","","","","","","","","","","","","","","","3","1","","","","","","","","","","","","","","","",""
"","","","","","html-button-response","382","1984709","0.0-376.0","39","male","4277","DSB_instruct","0","DSB_instruct","","","","","","","","","","","","","","","","","","","","","","","","","","","","","","","","","","",""
"","","","","","html-keyboard-response","383","1993640","0.0-377.0","39","male","","DSB","","DSB 00891367","","","","","[0,0,8,9,1,3,6,7]","8","76319800","","","","","","","","","","","","","","","","","","","","","","","","","","","",""
"","","","","","html-button-response","384","2012129","0.0-378.0","39","male","2014637.1000000238","DSBrecall","76319770","DSBrecall","","false","","","","","","8","6","0.75","","","","","","","","","","","","","","","","","","","","","","","","",""
"","","","","","dsb-summary-calculation","385","2012131","0.0-379.0","39","male","null","","null","","","","","","","","","","","","","","","","","","","","","0","0","0.75","2014637.1000000238","","","","","","","","","","","",""
"","","","","","consolidated-trial-data","386","2012132","0.0-380.0","39","male","null","consolidated-trial-data","null","consolidated-trial-data","","","","","","","","","","","","","","1","8","1","","3","1","0","0","0.75","","1","3","39","2","1601.457142863955","0.7","9","","","","",""
"","","","","","html-button-response","387","2036925","0.0-381.0","39","male","24793","block message","0","","","","","","","","","","","","","","","","","","","","","","","","","","","","","","","","","","","",""
"","","","","","html-button-response","388","2038193","0.0-382.0","39","male","1267","VS_instruct","0","VS_instruct","","","","","","","","","","","","","","","","","","","","","","","","","","","","","","","","","","",""
"","","","","","html-button-response","389","2040695","0.0-383.0","39","male","null","VisSearch","","VisSearch","","false","2","true","","","","","","","","","","","","","","","","","","","","","","","","","","","","","","",""
"","","","","","html-button-response","390","2041856","0.0-384.0","39","male","1160.0999999940395","VisSearch","","VisSearch","","true","2","true","","","","","","","","","","","","","","","","","","","","","","","","","","","","","","",""
"","","","","","html-button-response","391","2043000","0.0-385.0","39","male","1142.300000011921","VisSearch","","VisSearch","","true","2","true","","","","","","","","","","","","","","","","","","","","","","","","","","","","","","",""
"","","","","","html-button-response","392","2044907","0.0-386.0","39","male","1906.5","VisSearch","","VisSearch","","true","2","true","","","","","","","","","","","","","","","","","","","","","","","","","","","","","","",""
"","","","","","html-button-response","393","2045990","0.0-387.0","39","male","1082","VisSearch","","VisSearch","","true","2","true","","","","","","","","","","","","","","","","","","","","","","","","","","","","","","",""
"","","","","","html-button-response","394","2047516","0.0-388.0","39","male","1524.5","VisSearch","","VisSearch","","true","2","true","","","","","","","","","","","","","","","","","","","","","","","","","","","","","","",""
"","","","","","html-button-response","395","2049243","0.0-389.0","39","male","1725.5","VisSearch","","VisSearch","","true","2","true","","","","","","","","","","","","","","","","","","","","","","","","","","","","","","",""
"","","","","","html-button-response","396","2051133","0.0-390.0","39","male","1888.6000000238419","VisSearch","","VisSearch","","true","2","true","","","","","","","","","","","","","","","","","","","","","","","","","","","","","","",""
"","","","","","html-button-response","397","2052273","0.0-391.0","39","male","1139.7999999821186","VisSearch","","VisSearch","","true","2","true","","","","","","","","","","","","","","","","","","","","","","","","","","","","","","",""
"","","","","","html-button-response","398","2053729","0.0-392.0","39","male","1455","VisSearch","","VisSearch","","true","2","true","","","","","","","","","","","","","","","","","","","","","","","","","","","","","","",""
"","","","","","html-keyboard-response","399","2053731","0.0-393.0","39","male","null","","null","","","","","","","","","","","","vissearch-summary-calculation","0.9","1447.144444445769","","","","","","","","","","","","","","","","","","","","","",""
"","","","","","html-button-response","400","2054927","0.0-394.0","39","male","1196","DSB_instruct","0","DSB_instruct","","","","","","","","","","","","","","","","","","","","","","","","","","","","","","","","","","",""
"","","","","","html-keyboard-response","401","2063857","0.0-395.0","39","male","","DSB","","DSB 49116800","","","","","[4,9,1,1,6,8,0,0]","8","00861194","","","","","","","","","","","","","","","","","","","","","","","","","","","",""
"","","","","","html-button-response","402","2079977","0.0-396.0","39","male","2082484.6000000238","DSBrecall","00861994","DSBrecall","","false","","","","","","8","7","0.875","","","","","","","","","","","","","","","","","","","","","","","","",""
"","","","","","dsb-summary-calculation","403","2079980","0.0-397.0","39","male","null","","null","","","","","","","","","","","","","","","0","0","0.875","2082484.6000000238","","","","","","","","","","","","","","","","","",""
"","","","","","html-button-response","404","2081439","0.0-398.0","39","male","1458","image_instruct","0","image_instruct","","","","","","","","","","","","","","","","","","","","","","","","","","","","","","","","","","",""
"","","","","","html-keyboard-response","405","2096442","0.0-399.0","39","male","null","img10","null","img10","","","","","","","","","","","","","","","","","","null","null","","","","","","","","","","","","","","","",""
"","","","","","html-button-response","406","2097933","0.0-400.0","39","male","1491","DSB_instruct","0","DSB_instruct","","","","","","","","","","","","","","","","","","","","","","","","","","","","","","","","","","",""
"","","","","","html-keyboard-response","407","2106860","0.0-401.0","39","male","","DSB","","DSB 16404549","","","","","[1,6,4,0,4,5,4,9]","8","94540461","","","","","","","","","","","","","","","","","","","","","","","","","","","",""
"","","","","","html-button-response","408","2127934","0.0-402.0","39","male","2130441","DSBrecall","94540461","DSBrecall","","true","","","","","","8","8","1","","","","","","","","","","","","","","","","","","","","","","","","",""
"","","","","","dsb-summary-calculation","409","2127936","0.0-403.0","39","male","null","","null","","","","","","","","","","","","","","","","","","","","","1","8","1","2130441","","","","","","","","","","","",""
"","","","","","consolidated-trial-data","410","2127937","0.0-404.0","39","male","null","consolidated-trial-data","null","consolidated-trial-data","","","","","","","","","","","","","","0","0","0.875","","null","null","1","8","1","","1","4","39","2","1447.144444445769","0.9","10","","","","",""
"","","","","","html-button-response","411","2129313","0.0-405.0","39","male","1375","block message","0","","","","","","","","","","","","","","","","","","","","","","","","","","","","","","","","","","","",""
"","","","","","html-button-response","412","2130326","0.0-406.0","39","male","1011","VS_instruct","0","VS_instruct","","","","","","","","","","","","","","","","","","","","","","","","","","","","","","","","","","",""
"","","","","","html-button-response","413","2131242","0.0-407.0","39","male","914.7000000178814","VisSearch","","VisSearch","","true","2","true","","","","","","","","","","","","","","","","","","","","","","","","","","","","","","",""
"","","","","","html-button-response","414","2133052","0.0-408.0","39","male","1808.800000011921","VisSearch","","VisSearch","","true","2","true","","","","","","","","","","","","","","","","","","","","","","","","","","","","","","",""
"","","","","","html-button-response","415","2134386","0.0-409.0","39","male","1333.300000011921","VisSearch","","VisSearch","","true","2","true","","","","","","","","","","","","","","","","","","","","","","","","","","","","","","",""
"","","","","","html-button-response","416","2136679","0.0-410.0","39","male","2291.7000000178814","VisSearch","","VisSearch","","true","2","true","","","","","","","","","","","","","","","","","","","","","","","","","","","","","","",""
"","","","","","html-button-response","417","2137761","0.0-411.0","39","male","1080.300000011921","VisSearch","","VisSearch","","true","2","true","","","","","","","","","","","","","","","","","","","","","","","","","","","","","","",""
"","","","","","html-button-response","418","2139413","0.0-412.0","39","male","1651.199999988079","VisSearch","","VisSearch","","true","2","true","","","","","","","","","","","","","","","","","","","","","","","","","","","","","","",""
