"success","task","trial_type","trial_index","time_elapsed","internal_node_id","timeout","failed_images","failed_audio","failed_video","rt","stimulus","response","pixels_per_unit","is_correct","search_difficulty","enhanced","originalDigits","currentSpanLength","reversedDigits","span_length","correct_digits","digit_accuracy","trial_Type","VISsearch_propcorrect","VISsearch_meanRT","DSBpre_propcorrect","DSBpre_maxspan","DSBpre_digitaccuracy","DSBpre_rt","vegetationLevel","imageType","DSBpost_propcorrect","DSBpost_maxspan","DSBpost_digitaccuracy","DSBpost_rt","block","trial","trialid","VisDifficulty","Vis_meanRT","Vis_propCorr","imageIDX","attention_check_correct","target_button","question_order","image_id","iamge_set"
"true","fullscreen_enter","fullscreen","0","1048449","0.0-0.0","","","","","","","","","","","","","","","","","","","","","","","","","","","","","","","","","","","","","","","","","",""
"true","","preload","1","1054309","0.0-1.0","false","[]","[]","[]","","","","","","","","","","","","","","","","","","","","","","","","","","","","","","","","","","","","","",""
"","wecome","html-button-response","2","1060680","0.0-2.0","","","","","6370","welcome_msg","0","","","","","","","","","","","","","","","","","","","","","","","","","","","","","","","","","","",""
"","PIS","html-button-response","3","1074266","0.0-3.0","","","","","13583","PISdoc","0","","","","","","","","","","","","","","","","","","","","","","","","","","","","","","","","","","",""
"","demographics","survey-html-form","4","1080333","0.0-4.0","","","","","6064","","{""age"":""31"",""gender"":""female"",""id"":""6634""}","","","","","","","","","","","","","","","","","","","","","","","","","","","","","","","","","","",""
"","","html-button-response","5","1130567","0.0-5.0","","","","","50232","<div style= ""font-size: 24px; color: white; 
        position: absolute;
         top: 50%;left: 50%; transform: translate(-50%, -50%)"">        

            <br>Welcome to the experiment.<br> 
            Please read the instructions carefully.<br>
            There are two task types.<br><br>
            In the visual search task:<br>
            You must search the screen for either a red <font color = ""red"">""T"" </font>
            or blue <font color = ""blue""> ""O"" </font> hidden among red <font color = ""red""> ""X""s </font>.
            <br><br> In the digit task:<br> You must recall a list of numbers in reverse order. </div>
        ","0","","","","","","","","","","","","","","","","","","","","","","","","","","","","","","","","","","",""
"","calibration","html-button-response","6","1191073","0.0-6.0","","","","","60505","calibration","0","127","","","","","","","","","","","","","","","","","","","","","","","","","","","","","","","","","",""
"","VS_instruct","html-button-response","7","1203193","0.0-7.0","","","","","12119","VS_instruct","0","","","","","","","","","","","","","","","","","","","","","","","","","","","","","","","","","","",""
"","VisSearch","html-button-response","8","1205696","0.0-8.0","","","","","2500.699999988079","VisSearch","","","true","1","true","","","","","","","","","","","","","","","","","","","","","","","","","","","","","","",""
"","VisSearch","html-button-response","9","1207603","0.0-9.0","","","","","1906.4000000059605","VisSearch","","","true","1","true","","","","","","","","","","","","","","","","","","","","","","","","","","","","","","",""
"","VisSearch","html-button-response","10","1209906","0.0-10.0","","","","","2301.199999988079","VisSearch","","","true","1","true","","","","","","","","","","","","","","","","","","","","","","","","","","","","","","",""
"","VisSearch","html-button-response","11","1212409","0.0-11.0","","","","","null","VisSearch","","","false","1","true","","","","","","","","","","","","","","","","","","","","","","","","","","","","","","",""
"","VisSearch","html-button-response","12","1213838","0.0-12.0","","","","","1427.6000000089407","VisSearch","","","true","1","true","","","","","","","","","","","","","","","","","","","","","","","","","","","","","","",""
"","VisSearch","html-button-response","13","1215390","0.0-13.0","","","","","1551.2000000029802","VisSearch","","","true","1","true","","","","","","","","","","","","","","","","","","","","","","","","","","","","","","",""
"","VisSearch","html-button-response","14","1216526","0.0-14.0","","","","","1134.2999999970198","VisSearch","","","true","1","true","","","","","","","","","","","","","","","","","","","","","","","","","","","","","","",""
"","VisSearch","html-button-response","15","1217831","0.0-15.0","","","","","1304.4000000059605","VisSearch","","","true","1","true","","","","","","","","","","","","","","","","","","","","","","","","","","","","","","",""
"","VisSearch","html-button-response","16","1219133","0.0-16.0","","","","","1300.8999999910593","VisSearch","","","true","1","true","","","","","","","","","","","","","","","","","","","","","","","","","","","","","","",""
"","VisSearch","html-button-response","17","1220334","0.0-17.0","","","","","1199","VisSearch","","","true","1","true","","","","","","","","","","","","","","","","","","","","","","","","","","","","","","",""
"","DSB_instruct","html-button-response","18","1228224","0.0-18.0","","","","","7889","DSB_instruct","0","","","","","","","","","","","","","","","","","","","","","","","","","","","","","","","","","","",""
"","DSB 4429","html-keyboard-response","19","1231938","0.0-19.0","","","","","","DSB","","","","","","[4,4,2,9]","4","9244","","","","","","","","","","","","","","","","","","","","","","","","","","","",""
"","DSBrecall","html-button-response","20","1238836","0.0-20.0","","","","","577244.299999997","DSBrecall","9244","","true","","","","","","4","4","1","","","","","","","","","","","","","","","","","","","","","","","","",""
"","feedback","html-button-response","21","1240641","0.0-21.0","","","","","1803","<div class =""experiment-text""; style=""font-size: 20.32px;"">
            Correct!<br><br>
            Good job!
            </div>","0","","","","","","","","","","","","","","","","","","","","","","","","","","","","","","","","","","",""
"","DSB_instruct","html-button-response","22","1243717","0.0-22.0","","","","","3074","DSB_instruct","0","","","","","","","","","","","","","","","","","","","","","","","","","","","","","","","","","","",""
"","DSB 87951387","html-keyboard-response","23","1251030","0.0-23.0","","","","","","DSB","","","","","","[8,7,9,5,1,3,8,7]","8","78315978","","","","","","","","","","","","","","","","","","","","","","","","","","","",""
"","DSBrecall","html-button-response","24","1276531","0.0-24.0","","","","","614939.799999997","DSBrecall","78317958","","false","","","","","","8","6","0.75","","","","","","","","","","","","","","","","","","","","","","","","",""
"","feedback","html-button-response","25","1279575","0.0-25.0","","","","","3042","<div class =""experiment-text""; style=""font-size: 20.32px;"">
            Incorrect.<br><br>
            Try to recall in the reversed order.
            </div>","0","","","","","","","","","","","","","","","","","","","","","","","","","","","","","","","","","","",""
"","VS_instruct","html-button-response","26","1285039","0.0-26.0","","","","","5464","VS_instruct","0","","","","","","","","","","","","","","","","","","","","","","","","","","","","","","","","","","",""
"","VisSearch","html-button-response","27","1287547","0.0-27.0","","","","","null","VisSearch","","","false","2","true","","","","","","","","","","","","","","","","","","","","","","","","","","","","","","",""
"","VisSearch","html-button-response","28","1288753","0.0-28.0","","","","","1203.5999999940395","VisSearch","","","true","2","true","","","","","","","","","","","","","","","","","","","","","","","","","","","","","","",""
"","VisSearch","html-button-response","29","1289902","0.0-29.0","","","","","1147.2999999970198","VisSearch","","","true","2","true","","","","","","","","","","","","","","","","","","","","","","","","","","","","","","",""
"","VisSearch","html-button-response","30","1291874","0.0-30.0","","","","","1970.5999999940395","VisSearch","","","true","2","true","","","","","","","","","","","","","","","","","","","","","","","","","","","","","","",""
"","VisSearch","html-button-response","31","1293511","0.0-31.0","","","","","1636","VisSearch","","","true","2","true","","","","","","","","","","","","","","","","","","","","","","","","","","","","","","",""
"","VisSearch","html-button-response","32","1296018","0.0-32.0","","","","","null","VisSearch","","","false","2","true","","","","","","","","","","","","","","","","","","","","","","","","","","","","","","",""
"","VisSearch","html-button-response","33","1298525","0.0-33.0","","","","","null","VisSearch","","","false","2","true","","","","","","","","","","","","","","","","","","","","","","","","","","","","","","",""
"","VisSearch","html-button-response","34","1300383","0.0-34.0","","","","","1856.6000000089407","VisSearch","","","true","2","true","","","","","","","","","","","","","","","","","","","","","","","","","","","","","","",""
"","VisSearch","html-button-response","35","1302588","0.0-35.0","","","","","2204.2000000029802","VisSearch","","","true","2","true","","","","","","","","","","","","","","","","","","","","","","","","","","","","","","",""
"","VisSearch","html-button-response","36","1303838","0.0-36.0","","","","","1249","VisSearch","","","true","2","true","","","","","","","","","","","","","","","","","","","","","","","","","","","","","","",""
"","DSB_instruct","html-button-response","37","1305594","0.0-37.0","","","","","1754","DSB_instruct","0","","","","","","","","","","","","","","","","","","","","","","","","","","","","","","","","","","",""
"","DSB 7288","html-keyboard-response","38","1309304","0.0-38.0","","","","","","DSB","","","","","","[7,2,8,8]","4","8827","","","","","","","","","","","","","","","","","","","","","","","","","","","",""
"","DSBrecall","html-button-response","39","1314587","0.0-39.0","","","","","652995.8999999911","DSBrecall","8827","","true","","","","","","4","4","1","","","","","","","","","","","","","","","","","","","","","","","","",""
"","feedback","html-button-response","40","1315837","0.0-40.0","","","","","1249","<div class =""experiment-text""; style=""font-size: 20.32px;"">
            Correct!<br><br>
            Good job!
            </div>","0","","","","","","","","","","","","","","","","","","","","","","","","","","","","","","","","","","",""
"","DSB_instruct","html-button-response","41","1316957","0.0-41.0","","","","","1119","DSB_instruct","0","","","","","","","","","","","","","","","","","","","","","","","","","","","","","","","","","","",""
"","DSB 89768440","html-keyboard-response","42","1324277","0.0-42.0","","","","","","DSB","","","","","","[8,9,7,6,8,4,4,0]","8","04486798","","","","","","","","","","","","","","","","","","","","","","","","","","","",""
"","DSBrecall","html-button-response","43","1343397","0.0-43.0","","","","","681806","DSBrecall","04406278","","false","","","","","","8","5","0.625","","","","","","","","","","","","","","","","","","","","","","","","",""
"","feedback","html-button-response","44","1346205","0.0-44.0","","","","","2807","<div class =""experiment-text""; style=""font-size: 20.32px;"">
            Incorrect.<br><br>
            Try to recall in the reversed order.
            </div>","0","","","","","","","","","","","","","","","","","","","","","","","","","","","","","","","","","","",""
"","expIntructions","html-button-response","45","1352321","0.0-45.0-0.0","","","","","6115","expInstruc","0","","","","","","","","","","","","","","","","","","","","","","","","","","","","","","","","","","",""
"","expIntructions","html-button-response","46","1412130","0.0-45.0-0.1","","","","","59809","expInstruc","0","","","","","","","","","","","","","","","","","","","","","","","","","","","","","","","","","","",""
"","expIntructions","html-button-response","47","1417691","0.0-45.0-0.2","","","","","5560","expInstruc","0","","","","","","","","","","","","","","","","","","","","","","","","","","","","","","","","","","",""
"","expIntructions","html-button-response","48","1422270","0.0-45.0-0.3","","","","","4578","expInstruc","0","","","","","","","","","","","","","","","","","","","","","","","","","","","","","","","","","","",""
"","expIntructions","html-button-response","49","1432617","0.0-45.0-0.4","","","","","10347","expInstruc","0","","","","","","","","","","","","","","","","","","","","","","","","","","","","","","","","","","",""
"","expIntructions","html-button-response","50","1441905","0.0-45.0-0.5","","","","","9287","expInstruc","0","","","","","","","","","","","","","","","","","","","","","","","","","","","","","","","","","","",""
"","expIntructions","html-button-response","51","1443080","0.0-45.0-0.6","","","","","1174","expInstruc","0","","","","","","","","","","","","","","","","","","","","","","","","","","","","","","","","","","",""
"","","html-button-response","52","1447620","0.0-46.0","","","","","4539","block message","0","","","","","","","","","","","","","","","","","","","","","","","","","","","","","","","","","","",""
"","VS_instruct","html-button-response","53","1451614","0.0-47.0","","","","","3993","VS_instruct","0","","","","","","","","","","","","","","","","","","","","","","","","","","","","","","","","","","",""
"","VisSearch","html-button-response","54","1453052","0.0-48.0","","","","","1436.9000000059605","VisSearch","","","true","1","true","","","","","","","","","","","","","","","","","","","","","","","","","","","","","","",""
"","VisSearch","html-button-response","55","1454205","0.0-49.0","","","","","1151.7999999970198","VisSearch","","","true","1","true","","","","","","","","","","","","","","","","","","","","","","","","","","","","","","",""
"","VisSearch","html-button-response","56","1455327","0.0-50.0","","","","","1120.2999999970198","VisSearch","","","true","1","true","","","","","","","","","","","","","","","","","","","","","","","","","","","","","","",""
"","VisSearch","html-button-response","57","1456480","0.0-51.0","","","","","1152.1000000089407","VisSearch","","","true","1","true","","","","","","","","","","","","","","","","","","","","","","","","","","","","","","",""
"","VisSearch","html-button-response","58","1457698","0.0-52.0","","","","","1216","VisSearch","","","true","1","true","","","","","","","","","","","","","","","","","","","","","","","","","","","","","","",""
"","VisSearch","html-button-response","59","1458968","0.0-53.0","","","","","1269.4000000059605","VisSearch","","","true","1","true","","","","","","","","","","","","","","","","","","","","","","","","","","","","","","",""
"","VisSearch","html-button-response","60","1460341","0.0-54.0","","","","","1372","VisSearch","","","true","1","true","","","","","","","","","","","","","","","","","","","","","","","","","","","","","","",""
"","VisSearch","html-button-response","61","1461511","0.0-55.0","","","","","1168.2999999970198","VisSearch","","","true","1","true","","","","","","","","","","","","","","","","","","","","","","","","","","","","","","",""
"","VisSearch","html-button-response","62","1462895","0.0-56.0","","","","","1383.2999999970198","VisSearch","","","true","1","true","","","","","","","","","","","","","","","","","","","","","","","","","","","","","","",""
"","VisSearch","html-button-response","63","1464285","0.0-57.0","","","","","1389","VisSearch","","","true","1","true","","","","","","","","","","","","","","","","","","","","","","","","","","","","","","",""
"","","html-keyboard-response","64","1464300","0.0-58.0","","","","","null","","null","","","","","","","","","","","vissearch-summary-calculation","1","1265.9100000008941","","","","","","","","","","","","","","","","","","","","","",""
"","DSB_instruct","html-button-response","65","1479789","0.0-59.0","","","","","15487","DSB_instruct","0","","","","","","","","","","","","","","","","","","","","","","","","","","","","","","","","","","",""
"","DSB 64321521","html-keyboard-response","66","1487109","0.0-60.0","","","","","","DSB","","","","","","[6,4,3,2,1,5,2,1]","8","12512346","","","","","","","","","","","","","","","","","","","","","","","","","","","",""
"","DSBrecall","html-button-response","67","1531279","0.0-61.0","","","","","869690.8999999911","DSBrecall","12760346","","false","","","","","","8","5","0.625","","","","","","","","","","","","","","","","","","","","","","","","",""
"","","dsb-summary-calculation","68","1531282","0.0-62.0","","","","","null","","null","","","","","","","","","","","","","","0","0","0.625","869690.8999999911","","","","","","","","","","","","","","","","","",""
"","image_instruct","html-button-response","69","1535158","0.0-63.0","","","","","3874","image_instruct","0","","","","","","","","","","","","","","","","","","","","","","","","","","","","","","","","","","",""
"","img6","html-keyboard-response","70","1545160","0.0-64.0","","","","","null","img6","null","","","","","","","","","","","","","","","","","","3","2","","","","","","","","","","","","","","","",""
"","DSB_instruct","html-button-response","71","1549446","0.0-65.0","","","","","4285","DSB_instruct","0","","","","","","","","","","","","","","","","","","","","","","","","","","","","","","","","","","",""
"","DSB 46485250","html-keyboard-response","72","1556761","0.0-66.0","","","","","","DSB","","","","","","[4,6,4,8,5,2,5,0]","8","05258464","","","","","","","","","","","","","","","","","","","","","","","","","","","",""
"","DSBrecall","html-button-response","73","1586289","0.0-67.0","","","","","924701.1999999881","DSBrecall","05252346","","false","","","","","","8","4","0.5","","","","","","","","","","","","","","","","","","","","","","","","",""
"","","dsb-summary-calculation","74","1586291","0.0-68.0","","","","","null","","null","","","","","","","","","","","","","","","","","","","","0","0","0.5","924701.1999999881","","","","","","","","","","","",""
"","consolidated-trial-data","consolidated-trial-data","75","1586292","0.0-69.0","","","","","null","consolidated-trial-data","null","","","","","","","","","","","","","","0","0","0.625","","3","2","0","0","0.5","","0","0","39","1","1265.9100000008941","1","6","","","","",""
"","","html-button-response","76","1589501","0.0-70.0","","","","","3209","block message","0","","","","","","","","","","","","","","","","","","","","","","","","","","","","","","","","","","",""
"","VS_instruct","html-button-response","77","1590852","0.0-71.0","","","","","1349","VS_instruct","0","","","","","","","","","","","","","","","","","","","","","","","","","","","","","","","","","","",""
"","VisSearch","html-button-response","78","1592141","0.0-72.0","","","","","1287.7999999970198","VisSearch","","","true","1","true","","","","","","","","","","","","","","","","","","","","","","","","","","","","","","",""
"","VisSearch","html-button-response","79","1592740","0.0-73.0","","","","","596.9000000059605","VisSearch","","","true","1","true","","","","","","","","","","","","","","","","","","","","","","","","","","","","","","",""
"","VisSearch","html-button-response","80","1593726","0.0-74.0","","","","","984.5999999940395","VisSearch","","","true","1","true","","","","","","","","","","","","","","","","","","","","","","","","","","","","","","",""
"","VisSearch","html-button-response","81","1594765","0.0-75.0","","","","","1038.2999999970198","VisSearch","","","true","1","true","","","","","","","","","","","","","","","","","","","","","","","","","","","","","","",""
"","VisSearch","html-button-response","82","1595867","0.0-76.0","","","","","1101.2000000029802","VisSearch","","","true","1","true","","","","","","","","","","","","","","","","","","","","","","","","","","","","","","",""
"","VisSearch","html-button-response","83","1597318","0.0-77.0","","","","","1449.5","VisSearch","","","true","1","true","","","","","","","","","","","","","","","","","","","","","","","","","","","","","","",""
"","VisSearch","html-button-response","84","1598505","0.0-78.0","","","","","1185.7999999970198","VisSearch","","","true","1","true","","","","","","","","","","","","","","","","","","","","","","","","","","","","","","",""
"","VisSearch","html-button-response","85","1599563","0.0-79.0","","","","","1056.7000000029802","VisSearch","","","true","1","true","","","","","","","","","","","","","","","","","","","","","","","","","","","","","","",""
"","VisSearch","html-button-response","86","1600713","0.0-80.0","","","","","1149.6000000089407","VisSearch","","","true","1","true","","","","","","","","","","","","","","","","","","","","","","","","","","","","","","",""
"","VisSearch","html-button-response","87","1601935","0.0-81.0","","","","","1220.2999999970198","VisSearch","","","true","1","true","","","","","","","","","","","","","","","","","","","","","","","","","","","","","","",""
"","","html-keyboard-response","88","1601937","0.0-82.0","","","","","null","","null","","","","","","","","","","","vissearch-summary-calculation","1","1107.070000000298","","","","","","","","","","","","","","","","","","","","","",""
"","DSB_instruct","html-button-response","89","1604492","0.0-83.0","","","","","2554","DSB_instruct","0","","","","","","","","","","","","","","","","","","","","","","","","","","","","","","","","","","",""
"","DSB 95686074","html-keyboard-response","90","1611807","0.0-84.0","","","","","","DSB","","","","","","[9,5,6,8,6,0,7,4]","8","47068659","","","","","","","","","","","","","","","","","","","","","","","","","","","",""
"","DSBrecall","html-button-response","91","1639652","0.0-85.0","","","","","978065.3999999911","DSBrecall","47042659","","false","","","","","","8","6","0.75","","","","","","","","","","","","","","","","","","","","","","","","",""
"","","dsb-summary-calculation","92","1639665","0.0-86.0","","","","","null","","null","","","","","","","","","","","","","","0","0","0.75","978065.3999999911","","","","","","","","","","","","","","","","","",""
"","image_instruct","html-button-response","93","1643646","0.0-87.0","","","","","3979","image_instruct","0","","","","","","","","","","","","","","","","","","","","","","","","","","","","","","","","","","",""
"","img10","html-keyboard-response","94","1653647","0.0-88.0","","","","","null","img10","null","","","","","","","","","","","","","","","","","","null","null","","","","","","","","","","","","","","","",""
"","DSB_instruct","html-button-response","95","1655494","0.0-89.0","","","","","1846","DSB_instruct","0","","","","","","","","","","","","","","","","","","","","","","","","","","","","","","","","","","",""
"","DSB 96004790","html-keyboard-response","96","1662820","0.0-90.0","","","","","","DSB","","","","","","[9,6,0,0,4,7,9,0]","8","09740069","","","","","","","","","","","","","","","","","","","","","","","","","","","",""
"","DSBrecall","html-button-response","97","1689585","0.0-91.0","","","","","1027998.5","DSBrecall","07960746","","false","","","","","","8","2","0.25","","","","","","","","","","","","","","","","","","","","","","","","",""
"","","dsb-summary-calculation","98","1689588","0.0-92.0","","","","","null","","null","","","","","","","","","","","","","","","","","","","","0","0","0.25","1027998.5","","","","","","","","","","","",""
"","consolidated-trial-data","consolidated-trial-data","99","1689589","0.0-93.0","","","","","null","consolidated-trial-data","null","","","","","","","","","","","","","","0","0","0.75","","null","null","0","0","0.25","","0","1","39","1","1107.070000000298","1","10","","","","",""
"","","html-button-response","100","1691607","0.0-94.0","","","","","2017","block message","0","","","","","","","","","","","","","","","","","","","","","","","","","","","","","","","","","","",""
"","VS_instruct","html-button-response","101","1700446","0.0-95.0","","","","","8838","VS_instruct","0","","","","","","","","","","","","","","","","","","","","","","","","","","","","","","","","","","",""
"","VisSearch","html-button-response","102","1701934","0.0-96.0","","","","","1486.3999999910593","VisSearch","","","true","1","true","","","","","","","","","","","","","","","","","","","","","","","","","","","","","","",""
"","VisSearch","html-button-response","103","1703120","0.0-97.0","","","","","1184.7000000029802","VisSearch","","","true","1","true","","","","","","","","","","","","","","","","","","","","","","","","","","","","","","",""
"","VisSearch","html-button-response","104","1704423","0.0-98.0","","","","","1301.0999999940395","VisSearch","","","true","1","true","","","","","","","","","","","","","","","","","","","","","","","","","","","","","","",""
"","VisSearch","html-button-response","105","1705657","0.0-99.0","","","","","1233.3999999910593","VisSearch","","","true","1","true","","","","","","","","","","","","","","","","","","","","","","","","","","","","","","",""
"","VisSearch","html-button-response","106","1706862","0.0-100.0","","","","","1203.8999999910593","VisSearch","","","true","1","true","","","","","","","","","","","","","","","","","","","","","","","","","","","","","","",""
"","VisSearch","html-button-response","107","1708285","0.0-101.0","","","","","1421.5","VisSearch","","","true","1","true","","","","","","","","","","","","","","","","","","","","","","","","","","","","","","",""
"","VisSearch","html-button-response","108","1709336","0.0-102.0","","","","","1049.9000000059605","VisSearch","","","true","1","true","","","","","","","","","","","","","","","","","","","","","","","","","","","","","","",""
"","VisSearch","html-button-response","109","1710540","0.0-103.0","","","","","1203","VisSearch","","","true","1","true","","","","","","","","","","","","","","","","","","","","","","","","","","","","","","",""
"","VisSearch","html-button-response","110","1711873","0.0-104.0","","","","","1332.4000000059605","VisSearch","","","true","1","true","","","","","","","","","","","","","","","","","","","","","","","","","","","","","","",""
"","VisSearch","html-button-response","111","1713477","0.0-105.0","","","","","1602.300000011921","VisSearch","","","true","1","true","","","","","","","","","","","","","","","","","","","","","","","","","","","","","","",""
"","","html-keyboard-response","112","1713479","0.0-106.0","","","","","null","","null","","","","","","","","","","","vissearch-summary-calculation","1","1301.859999999404","","","","","","","","","","","","","","","","","","","","","",""
"","DSB_instruct","html-button-response","113","1714919","0.0-107.0","","","","","1439","DSB_instruct","0","","","","","","","","","","","","","","","","","","","","","","","","","","","","","","","","","","",""
"","DSB 97800107","html-keyboard-response","114","1722240","0.0-108.0","","","","","","DSB","","","","","","[9,7,8,0,0,1,0,7]","8","70100879","","","","","","","","","","","","","","","","","","","","","","","","","","","",""
"","DSBrecall","html-button-response","115","1735990","0.0-109.0","","","","","1074404.699999988","DSBrecall","70110879","","false","","","","","","8","7","0.875","","","","","","","","","","","","","","","","","","","","","","","","",""
"","","dsb-summary-calculation","116","1735993","0.0-110.0","","","","","null","","null","","","","","","","","","","","","","","0","0","0.875","1074404.699999988","","","","","","","","","","","","","","","","","",""
"","image_instruct","html-button-response","117","1738064","0.0-111.0","","","","","2070","image_instruct","0","","","","","","","","","","","","","","","","","","","","","","","","","","","","","","","","","","",""
"","img7","html-keyboard-response","118","1748066","0.0-112.0","","","","","null","img7","null","","","","","","","","","","","","","","","","","","1","2","","","","","","","","","","","","","","","",""
"","DSB_instruct","html-button-response","119","1750714","0.0-113.0","","","","","2647","DSB_instruct","0","","","","","","","","","","","","","","","","","","","","","","","","","","","","","","","","","","",""
"","DSB 42412563","html-keyboard-response","120","1758038","0.0-114.0","","","","","","DSB","","","","","","[4,2,4,1,2,5,6,3]","8","36521424","","","","","","","","","","","","","","","","","","","","","","","","","","","",""
"","DSBrecall","html-button-response","121","1780491","0.0-115.0","","","","","1118906","DSBrecall","36721824","","false","","","","","","8","6","0.75","","","","","","","","","","","","","","","","","","","","","","","","",""
"","","dsb-summary-calculation","122","1780506","0.0-116.0","","","","","null","","null","","","","","","","","","","","","","","","","","","","","0","0","0.75","1118906","","","","","","","","","","","",""
"","consolidated-trial-data","consolidated-trial-data","123","1780507","0.0-117.0","","","","","null","consolidated-trial-data","null","","","","","","","","","","","","","","0","0","0.875","","1","2","0","0","0.75","","0","2","39","1","1301.859999999404","1","7","","","","",""
"","","html-button-response","124","1782030","0.0-118.0","","","","","1522","block message","0","","","","","","","","","","","","","","","","","","","","","","","","","","","","","","","","","","",""
"","VS_instruct","html-button-response","125","1783115","0.0-119.0","","","","","1083","VS_instruct","0","","","","","","","","","","","","","","","","","","","","","","","","","","","","","","","","","","",""
"","VisSearch","html-button-response","126","1784287","0.0-120.0","","","","","1171.699999988079","VisSearch","","","true","1","true","","","","","","","","","","","","","","","","","","","","","","","","","","","","","","",""
"","VisSearch","html-button-response","127","1785489","0.0-121.0","","","","","1200.7999999970198","VisSearch","","","true","1","true","","","","","","","","","","","","","","","","","","","","","","","","","","","","","","",""
"","VisSearch","html-button-response","128","1787140","0.0-122.0","","","","","1649.2000000029802","VisSearch","","","true","1","true","","","","","","","","","","","","","","","","","","","","","","","","","","","","","","",""
"","VisSearch","html-button-response","129","1788677","0.0-123.0","","","","","1536.0999999940395","VisSearch","","","true","1","true","","","","","","","","","","","","","","","","","","","","","","","","","","","","","","",""
"","VisSearch","html-button-response","130","1789884","0.0-124.0","","","","","1205.2999999970198","VisSearch","","","true","1","true","","","","","","","","","","","","","","","","","","","","","","","","","","","","","","",""
"","VisSearch","html-button-response","131","1791167","0.0-125.0","","","","","1282.4000000059605","VisSearch","","","true","1","true","","","","","","","","","","","","","","","","","","","","","","","","","","","","","","",""
"","VisSearch","html-button-response","132","1792371","0.0-126.0","","","","","1202.5","VisSearch","","","true","1","true","","","","","","","","","","","","","","","","","","","","","","","","","","","","","","",""
"","VisSearch","html-button-response","133","1793508","0.0-127.0","","","","","1136","VisSearch","","","true","1","true","","","","","","","","","","","","","","","","","","","","","","","","","","","","","","",""
"","VisSearch","html-button-response","134","1794916","0.0-128.0","","","","","1406","VisSearch","","","true","1","true","","","","","","","","","","","","","","","","","","","","","","","","","","","","","","",""
"","VisSearch","html-button-response","135","1796585","0.0-129.0","","","","","1668.5","VisSearch","","","true","1","true","","","","","","","","","","","","","","","","","","","","","","","","","","","","","","",""
"","","html-keyboard-response","136","1796599","0.0-130.0","","","","","null","","null","","","","","","","","","","","vissearch-summary-calculation","1","1345.84999999851","","","","","","","","","","","","","","","","","","","","","",""
"","DSB_instruct","html-button-response","137","1798172","0.0-131.0","","","","","1570","DSB_instruct","0","","","","","","","","","","","","","","","","","","","","","","","","","","","","","","","","","","",""
"","DSB 16040971","html-keyboard-response","138","1805489","0.0-132.0","","","","","","DSB","","","","","","[1,6,0,4,0,9,7,1]","8","17904061","","","","","","","","","","","","","","","","","","","","","","","","","","","",""
"","DSBrecall","html-button-response","139","1825161","0.0-133.0","","","","","1163576.199999988","DSBrecall","17400624","","false","","","","","","8","3","0.375","","","","","","","","","","","","","","","","","","","","","","","","",""
"","","dsb-summary-calculation","140","1825163","0.0-134.0","","","","","null","","null","","","","","","","","","","","","","","0","0","0.375","1163576.199999988","","","","","","","","","","","","","","","","","",""
"","image_instruct","html-button-response","141","1826548","0.0-135.0","","","","","1384","image_instruct","0","","","","","","","","","","","","","","","","","","","","","","","","","","","","","","","","","","",""
"","img5","html-keyboard-response","142","1836551","0.0-136.0","","","","","null","img5","null","","","","","","","","","","","","","","","","","","2","1","","","","","","","","","","","","","","","",""
"","DSB_instruct","html-button-response","143","1837962","0.0-137.0","","","","","1410","DSB_instruct","0","","","","","","","","","","","","","","","","","","","","","","","","","","","","","","","","","","",""
"","DSB 58437725","html-keyboard-response","144","1845277","0.0-138.0","","","","","","DSB","","","","","","[5,8,4,3,7,7,2,5]","8","52773485","","","","","","","","","","","","","","","","","","","","","","","","","","","",""
"","DSBrecall","html-button-response","145","1865936","0.0-139.0","","","","","1204351.5","DSBrecall","52773475","","false","","","","","","8","7","0.875","","","","","","","","","","","","","","","","","","","","","","","","",""
"","","dsb-summary-calculation","146","1865938","0.0-140.0","","","","","null","","null","","","","","","","","","","","","","","","","","","","","0","0","0.875","1204351.5","","","","","","","","","","","",""
"","consolidated-trial-data","consolidated-trial-data","147","1865939","0.0-141.0","","","","","null","consolidated-trial-data","null","","","","","","","","","","","","","","0","0","0.375","","2","1","0","0","0.875","","0","3","39","1","1345.84999999851","1","5","","","","",""
"","","html-button-response","148","1867890","0.0-142.0","","","","","1950","block message","0","","","","","","","","","","","","","","","","","","","","","","","","","","","","","","","","","","",""
"","VS_instruct","html-button-response","149","1869312","0.0-143.0","","","","","1421","VS_instruct","0","","","","","","","","","","","","","","","","","","","","","","","","","","","","","","","","","","",""
"","VisSearch","html-button-response","150","1870294","0.0-144.0","","","","","980.6000000089407","VisSearch","","","true","1","true","","","","","","","","","","","","","","","","","","","","","","","","","","","","","","",""
"","VisSearch","html-button-response","151","1871698","0.0-145.0","","","","","1402.5","VisSearch","","","true","1","true","","","","","","","","","","","","","","","","","","","","","","","","","","","","","","",""
"","VisSearch","html-button-response","152","1873018","0.0-146.0","","","","","1318.7999999970198","VisSearch","","","true","1","true","","","","","","","","","","","","","","","","","","","","","","","","","","","","","","",""
"","VisSearch","html-button-response","153","1874124","0.0-147.0","","","","","1104.7999999970198","VisSearch","","","true","1","true","","","","","","","","","","","","","","","","","","","","","","","","","","","","","","",""
"","VisSearch","html-button-response","154","1875241","0.0-148.0","","","","","1115.0999999940395","VisSearch","","","true","1","true","","","","","","","","","","","","","","","","","","","","","","","","","","","","","","",""
"","VisSearch","html-button-response","155","1876328","0.0-149.0","","","","","1085.7000000029802","VisSearch","","","true","1","true","","","","","","","","","","","","","","","","","","","","","","","","","","","","","","",""
"","VisSearch","html-button-response","156","1877433","0.0-150.0","","","","","1104.7000000029802","VisSearch","","","true","1","true","","","","","","","","","","","","","","","","","","","","","","","","","","","","","","",""
"","VisSearch","html-button-response","157","1878316","0.0-151.0","","","","","881.9000000059605","VisSearch","","","true","1","true","","","","","","","","","","","","","","","","","","","","","","","","","","","","","","",""
"","VisSearch","html-button-response","158","1879334","0.0-152.0","","","","","1017.1999999880791","VisSearch","","","true","1","true","","","","","","","","","","","","","","","","","","","","","","","","","","","","","","",""
"","VisSearch","html-button-response","159","1880357","0.0-153.0","","","","","1021.7000000029802","VisSearch","","","true","1","true","","","","","","","","","","","","","","","","","","","","","","","","","","","","","","",""
"","","html-keyboard-response","160","1880372","0.0-154.0","","","","","null","","null","","","","","","","","","","","vissearch-summary-calculation","1","1103.3","","","","","","","","","","","","","","","","","","","","","",""
"","DSB_instruct","html-button-response","161","1881711","0.0-155.0","","","","","1337","DSB_instruct","0","","","","","","","","","","","","","","","","","","","","","","","","","","","","","","","","","","",""
"","DSB 39728302","html-keyboard-response","162","1889096","0.0-156.0","","","","","","DSB","","","","","","[3,9,7,2,8,3,0,2]","8","20382793","","","","","","","","","","","","","","","","","","","","","","","","","","","",""
"","DSBrecall","html-button-response","163","1912143","0.0-157.0","","","","","1250559.699999988","DSBrecall","20383857","","false","","","","","","8","4","0.5","","","","","","","","","","","","","","","","","","","","","","","","",""
"","","dsb-summary-calculation","164","1912157","0.0-158.0","","","","","null","","null","","","","","","","","","","","","","","0","0","0.5","1250559.699999988","","","","","","","","","","","","","","","","","",""
"","image_instruct","html-button-response","165","1915352","0.0-159.0","","","","","3193","image_instruct","0","","","","","","","","","","","","","","","","","","","","","","","","","","","","","","","","","","",""
"","img8","html-keyboard-response","166","1925359","0.0-160.0","","","","","null","img8","null","","","","","","","","","","","","","","","","","","2","2","","","","","","","","","","","","","","","",""
"","DSB_instruct","html-button-response","167","1927330","0.0-161.0","","","","","1970","DSB_instruct","0","","","","","","","","","","","","","","","","","","","","","","","","","","","","","","","","","","",""
"","DSB 76924829","html-keyboard-response","168","1934683","0.0-162.0","","","","","","DSB","","","","","","[7,6,9,2,4,8,2,9]","8","92842967","","","","","","","","","","","","","","","","","","","","","","","","","","","",""
"","DSBrecall","html-button-response","169","1961641","0.0-163.0","","","","","1300058.199999988","DSBrecall","10392967","","false","","","","","","8","4","0.5","","","","","","","","","","","","","","","","","","","","","","","","",""
"","","dsb-summary-calculation","170","1961655","0.0-164.0","","","","","null","","null","","","","","","","","","","","","","","","","","","","","0","0","0.5","1300058.199999988","","","","","","","","","","","",""
"","consolidated-trial-data","consolidated-trial-data","171","1961656","0.0-165.0","","","","","null","consolidated-trial-data","null","","","","","","","","","","","","","","0","0","0.5","","2","2","0","0","0.5","","0","4","39","1","1103.3","1","8","","","","",""
"","","html-button-response","172","1968510","0.0-166.0","","","","","6853","block message","0","","","","","","","","","","","","","","","","","","","","","","","","","","","","","","","","","","",""
"","VS_instruct","html-button-response","173","1969763","0.0-167.0","","","","","1251","VS_instruct","0","","","","","","","","","","","","","","","","","","","","","","","","","","","","","","","","","","",""
"","VisSearch","html-button-response","174","1970845","0.0-168.0","","","","","1080.7000000029802","VisSearch","","","true","1","true","","","","","","","","","","","","","","","","","","","","","","","","","","","","","","",""
"","VisSearch","html-button-response","175","1972132","0.0-169.0","","","","","1285.2000000029802","VisSearch","","","true","1","true","","","","","","","","","","","","","","","","","","","","","","","","","","","","","","",""
"","VisSearch","html-button-response","176","1973538","0.0-170.0","","","","","1405.2999999970198","VisSearch","","","true","1","true","","","","","","","","","","","","","","","","","","","","","","","","","","","","","","",""
"","VisSearch","html-button-response","177","1974775","0.0-171.0","","","","","1235.2000000029802","VisSearch","","","true","1","true","","","","","","","","","","","","","","","","","","","","","","","","","","","","","","",""
"","VisSearch","html-button-response","178","1975824","0.0-172.0","","","","","1047.7999999970198","VisSearch","","","true","1","true","","","","","","","","","","","","","","","","","","","","","","","","","","","","","","",""
"","VisSearch","html-button-response","179","1977164","0.0-173.0","","","","","1340","VisSearch","","","true","1","true","","","","","","","","","","","","","","","","","","","","","","","","","","","","","","",""
"","VisSearch","html-button-response","180","1978502","0.0-174.0","","","","","1335.800000011921","VisSearch","","","true","1","true","","","","","","","","","","","","","","","","","","","","","","","","","","","","","","",""
"","VisSearch","html-button-response","181","1979718","0.0-175.0","","","","","1215.6000000089407","VisSearch","","","true","1","true","","","","","","","","","","","","","","","","","","","","","","","","","","","","","","",""
"","VisSearch","html-button-response","182","1981056","0.0-176.0","","","","","1336.1000000089407","VisSearch","","","true","1","true","","","","","","","","","","","","","","","","","","","","","","","","","","","","","","",""
"","VisSearch","html-button-response","183","1982111","0.0-177.0","","","","","1054.4000000059605","VisSearch","","","true","1","true","","","","","","","","","","","","","","","","","","","","","","","","","","","","","","",""
"","","html-keyboard-response","184","1982143","0.0-178.0","","","","","null","","null","","","","","","","","","","","vissearch-summary-calculation","1","1233.6100000038743","","","","","","","","","","","","","","","","","","","","","",""
"","DSB_instruct","html-button-response","185","1983482","0.0-179.0","","","","","1337","DSB_instruct","0","","","","","","","","","","","","","","","","","","","","","","","","","","","","","","","","","","",""
"","DSB 49956962","html-keyboard-response","186","1990865","0.0-180.0","","","","","","DSB","","","","","","[4,9,9,5,6,9,6,2]","8","26965994","","","","","","","","","","","","","","","","","","","","","","","","","","","",""
"","DSBrecall","html-button-response","187","2012024","0.0-181.0","","","","","1350441.899999991","DSBrecall","26962994","","false","","","","","","8","7","0.875","","","","","","","","","","","","","","","","","","","","","","","","",""
"","","dsb-summary-calculation","188","2012026","0.0-182.0","","","","","null","","null","","","","","","","","","","","","","","0","0","0.875","1350441.899999991","","","","","","","","","","","","","","","","","",""
"","image_instruct","html-button-response","189","2013244","0.0-183.0","","","","","1217","image_instruct","0","","","","","","","","","","","","","","","","","","","","","","","","","","","","","","","","","","",""
"","img2","html-keyboard-response","190","2023252","0.0-184.0","","","","","null","img2","null","","","","","","","","","","","","","","","","","","2","2","","","","","","","","","","","","","","","",""
"","DSB_instruct","html-button-response","191","2024608","0.0-185.0","","","","","1356","DSB_instruct","0","","","","","","","","","","","","","","","","","","","","","","","","","","","","","","","","","","",""
"","DSB 39813180","html-keyboard-response","192","2031975","0.0-186.0","","","","","","DSB","","","","","","[3,9,8,1,3,1,8,0]","8","08131893","","","","","","","","","","","","","","","","","","","","","","","","","","","",""
"","DSBrecall","html-button-response","193","2056891","0.0-187.0","","","","","1395309","DSBrecall","08138393","","false","","","","","","8","6","0.75","","","","","","","","","","","","","","","","","","","","","","","","",""
"","","dsb-summary-calculation","194","2056907","0.0-188.0","","","","","null","","null","","","","","","","","","","","","","","","","","","","","0","0","0.75","1395309","","","","","","","","","","","",""
"","consolidated-trial-data","consolidated-trial-data","195","2056907","0.0-189.0","","","","","null","consolidated-trial-data","null","","","","","","","","","","","","","","0","0","0.875","","2","2","0","0","0.75","","0","5","39","1","1233.6100000038743","1","2","","","","",""
"","attncheck","html-button-response","196","2062527","0.0-190.0","","","","","5619","attncheck","0","","","","","","","","","","","","","","","","","","","","","","","","","","","","","","","true","Stop","","",""
"","","html-button-response","197","2064998","0.0-191.0","","","","","2470","block message","0","","","","","","","","","","","","","","","","","","","","","","","","","","","","","","","","","","",""
"","VS_instruct","html-button-response","198","2066022","0.0-192.0","","","","","1023","VS_instruct","0","","","","","","","","","","","","","","","","","","","","","","","","","","","","","","","","","","",""
"","VisSearch","html-button-response","199","2067069","0.0-193.0","","","","","1045.0999999940395","VisSearch","","","true","1","true","","","","","","","","","","","","","","","","","","","","","","","","","","","","","","",""
"","VisSearch","html-button-response","200","2068173","0.0-194.0","","","","","1103.7000000029802","VisSearch","","","true","1","true","","","","","","","","","","","","","","","","","","","","","","","","","","","","","","",""
"","VisSearch","html-button-response","201","2069444","0.0-195.0","","","","","1269.4000000059605","VisSearch","","","true","1","true","","","","","","","","","","","","","","","","","","","","","","","","","","","","","","",""
"","VisSearch","html-button-response","202","2070811","0.0-196.0","","","","","1365.699999988079","VisSearch","","","true","1","true","","","","","","","","","","","","","","","","","","","","","","","","","","","","","","",""
"","VisSearch","html-button-response","203","2072131","0.0-197.0","","","","","1319","VisSearch","","","true","1","true","","","","","","","","","","","","","","","","","","","","","","","","","","","","","","",""
"","VisSearch","html-button-response","204","2073622","0.0-198.0","","","","","1489.5","VisSearch","","","true","1","true","","","","","","","","","","","","","","","","","","","","","","","","","","","","","","",""
"","VisSearch","html-button-response","205","2074537","0.0-199.0","","","","","914.2999999970198","VisSearch","","","true","1","true","","","","","","","","","","","","","","","","","","","","","","","","","","","","","","",""
"","VisSearch","html-button-response","206","2075660","0.0-200.0","","","","","1121.5","VisSearch","","","true","1","true","","","","","","","","","","","","","","","","","","","","","","","","","","","","","","",""
"","VisSearch","html-button-response","207","2077032","0.0-201.0","","","","","1370.6000000089407","VisSearch","","","true","1","true","","","","","","","","","","","","","","","","","","","","","","","","","","","","","","",""
"","VisSearch","html-button-response","208","2078365","0.0-202.0","","","","","1331.699999988079","VisSearch","","","true","1","true","","","","","","","","","","","","","","","","","","","","","","","","","","","","","","",""
"","","html-keyboard-response","209","2078367","0.0-203.0","","","","","null","","null","","","","","","","","","","","vissearch-summary-calculation","1","1233.04999999851","","","","","","","","","","","","","","","","","","","","","",""
"","DSB_instruct","html-button-response","210","2079685","0.0-204.0","","","","","1316","DSB_instruct","0","","","","","","","","","","","","","","","","","","","","","","","","","","","","","","","","","","",""
"","DSB 23671751","html-keyboard-response","211","2087021","0.0-205.0","","","","","","DSB","","","","","","[2,3,6,7,1,7,5,1]","8","15717632","","","","","","","","","","","","","","","","","","","","","","","","","","","",""
"","DSBrecall","html-button-response","212","2104771","0.0-206.0","","","","","1443189.799999997","DSBrecall","15717632","","true","","","","","","8","8","1","","","","","","","","","","","","","","","","","","","","","","","","",""
"","","dsb-summary-calculation","213","2104773","0.0-207.0","","","","","null","","null","","","","","","","","","","","","","","1","8","1","1443189.799999997","","","","","","","","","","","","","","","","","",""
"","image_instruct","html-button-response","214","2106393","0.0-208.0","","","","","1618","image_instruct","0","","","","","","","","","","","","","","","","","","","","","","","","","","","","","","","","","","",""
"","img4","html-keyboard-response","215","2116399","0.0-209.0","","","","","null","img4","null","","","","","","","","","","","","","","","","","","1","2","","","","","","","","","","","","","","","",""
"","DSB_instruct","html-button-response","216","2118608","0.0-210.0","","","","","2208","DSB_instruct","0","","","","","","","","","","","","","","","","","","","","","","","","","","","","","","","","","","",""
"","DSB 71348583","html-keyboard-response","217","2125991","0.0-211.0","","","","","","DSB","","","","","","[7,1,3,4,8,5,8,3]","8","38584317","","","","","","","","","","","","","","","","","","","","","","","","","","","",""
"","DSBrecall","html-button-response","218","2143941","0.0-212.0","","","","","1482360.899999991","DSBrecall","38587637","","false","","","","","","8","5","0.625","","","","","","","","","","","","","","","","","","","","","","","","",""
"","","dsb-summary-calculation","219","2143943","0.0-213.0","","","","","null","","null","","","","","","","","","","","","","","","","","","","","0","0","0.625","1482360.899999991","","","","","","","","","","","",""
"","consolidated-trial-data","consolidated-trial-data","220","2143944","0.0-214.0","","","","","null","consolidated-trial-data","null","","","","","","","","","","","","","","1","8","1","","1","2","0","0","0.625","","0","6","39","1","1233.04999999851","1","4","","","","",""
"","","html-button-response","221","2145259","0.0-215.0","","","","","1314","block message","0","","","","","","","","","","","","","","","","","","","","","","","","","","","","","","","","","","",""
"","VS_instruct","html-button-response","222","2146130","0.0-216.0","","","","","870","VS_instruct","0","","","","","","","","","","","","","","","","","","","","","","","","","","","","","","","","","","",""
"","VisSearch","html-button-response","223","2147331","0.0-217.0","","","","","1199.300000011921","VisSearch","","","true","1","true","","","","","","","","","","","","","","","","","","","","","","","","","","","","","","",""
"","VisSearch","html-button-response","224","2148802","0.0-218.0","","","","","1469.5","VisSearch","","","true","1","true","","","","","","","","","","","","","","","","","","","","","","","","","","","","","","",""
"","VisSearch","html-button-response","225","2150004","0.0-219.0","","","","","1201.3999999910593","VisSearch","","","true","1","true","","","","","","","","","","","","","","","","","","","","","","","","","","","","","","",""
"","VisSearch","html-button-response","226","2151092","0.0-220.0","","","","","1086.5","VisSearch","","","true","1","true","","","","","","","","","","","","","","","","","","","","","","","","","","","","","","",""
"","VisSearch","html-button-response","227","2152381","0.0-221.0","","","","","1287.7999999970198","VisSearch","","","true","1","true","","","","","","","","","","","","","","","","","","","","","","","","","","","","","","",""
"","VisSearch","html-button-response","228","2153350","0.0-222.0","","","","","967.5999999940395","VisSearch","","","true","1","true","","","","","","","","","","","","","","","","","","","","","","","","","","","","","","",""
"","VisSearch","html-button-response","229","2154468","0.0-223.0","","","","","1116.699999988079","VisSearch","","","true","1","true","","","","","","","","","","","","","","","","","","","","","","","","","","","","","","",""
"","VisSearch","html-button-response","230","2156840","0.0-224.0","","","","","2370.699999988079","VisSearch","","","true","1","true","","","","","","","","","","","","","","","","","","","","","","","","","","","","","","",""
"","VisSearch","html-button-response","231","2158881","0.0-225.0","","","","","2040.2000000029802","VisSearch","","","true","1","true","","","","","","","","","","","","","","","","","","","","","","","","","","","","","","",""
"","VisSearch","html-button-response","232","2160168","0.0-226.0","","","","","1285.4000000059605","VisSearch","","","true","1","true","","","","","","","","","","","","","","","","","","","","","","","","","","","","","","",""
"","","html-keyboard-response","233","2160183","0.0-227.0","","","","","null","","null","","","","","","","","","","","vissearch-summary-calculation","1","1402.5099999979138","","","","","","","","","","","","","","","","","","","","","",""
"","DSB_instruct","html-button-response","234","2161368","0.0-228.0","","","","","1184","DSB_instruct","0","","","","","","","","","","","","","","","","","","","","","","","","","","","","","","","","","","",""
"","DSB 35052871","html-keyboard-response","235","2168706","0.0-229.0","","","","","","DSB","","","","","","[3,5,0,5,2,8,7,1]","8","17825053","","","","","","","","","","","","","","","","","","","","","","","","","","","",""
"","DSBrecall","html-button-response","236","2187772","0.0-230.0","","","","","1526191.699999988","DSBrecall","17827353","","false","","","","","","8","6","0.75","","","","","","","","","","","","","","","","","","","","","","","","",""
"","","dsb-summary-calculation","237","2187789","0.0-231.0","","","","","null","","null","","","","","","","","","","","","","","0","0","0.75","1526191.699999988","","","","","","","","","","","","","","","","","",""
"","image_instruct","html-button-response","238","2188978","0.0-232.0","","","","","1187","image_instruct","0","","","","","","","","","","","","","","","","","","","","","","","","","","","","","","","","","","",""
"","img9","html-keyboard-response","239","2198985","0.0-233.0","","","","","null","img9","null","","","","","","","","","","","","","","","","","","3","1","","","","","","","","","","","","","","","",""
"","DSB_instruct","html-button-response","240","2203046","0.0-234.0","","","","","4060","DSB_instruct","0","","","","","","","","","","","","","","","","","","","","","","","","","","","","","","","","","","",""
"","DSB 34180298","html-keyboard-response","241","2210416","0.0-235.0","","","","","","DSB","","","","","","[3,4,1,8,0,2,9,8]","8","89208143","","","","","","","","","","","","","","","","","","","","","","","","","","","",""
"","DSBrecall","html-button-response","242","2229686","0.0-236.0","","","","","1568106.399999991","DSBrecall","89207973","","false","","","","","","8","5","0.625","","","","","","","","","","","","","","","","","","","","","","","","",""
"","","dsb-summary-calculation","243","2229701","0.0-237.0","","","","","null","","null","","","","","","","","","","","","","","","","","","","","0","0","0.625","1568106.399999991","","","","","","","","","","","",""
"","consolidated-trial-data","consolidated-trial-data","244","2229702","0.0-238.0","","","","","null","consolidated-trial-data","null","","","","","","","","","","","","","","0","0","0.75","","3","1","0","0","0.625","","0","7","39","1","1402.5099999979138","1","9","","","","",""
"","attncheck","html-button-response","245","2233163","0.0-239.0","","","","","3460","attncheck","2","","","","","","","","","","","","","","","","","","","","","","","","","","","","","","","true","Next","","",""
"","","html-button-response","246","2236083","0.0-240.0","","","","","2919","block message","0","","","","","","","","","","","","","","","","","","","","","","","","","","","","","","","","","","",""
"","VS_instruct","html-button-response","247","2237354","0.0-241.0","","","","","1269","VS_instruct","0","","","","","","","","","","","","","","","","","","","","","","","","","","","","","","","","","","",""
"","VisSearch","html-button-response","248","2238356","0.0-242.0","","","","","1001.1000000089407","VisSearch","","","true","1","true","","","","","","","","","","","","","","","","","","","","","","","","","","","","","","",""
"","VisSearch","html-button-response","249","2239560","0.0-243.0","","","","","1202.3999999910593","VisSearch","","","true","1","true","","","","","","","","","","","","","","","","","","","","","","","","","","","","","","",""
"","VisSearch","html-button-response","250","2240631","0.0-244.0","","","","","1070.4000000059605","VisSearch","","","true","1","true","","","","","","","","","","","","","","","","","","","","","","","","","","","","","","",""
"","VisSearch","html-button-response","251","2241918","0.0-245.0","","","","","1285.7999999970198","VisSearch","","","true","1","true","","","","","","","","","","","","","","","","","","","","","","","","","","","","","","",""
"","VisSearch","html-button-response","252","2243470","0.0-246.0","","","","","1550.2999999970198","VisSearch","","","true","1","true","","","","","","","","","","","","","","","","","","","","","","","","","","","","","","",""
"","VisSearch","html-button-response","253","2244458","0.0-247.0","","","","","987","VisSearch","","","true","1","true","","","","","","","","","","","","","","","","","","","","","","","","","","","","","","",""
"","VisSearch","html-button-response","254","2245494","0.0-248.0","","","","","1034.7000000029802","VisSearch","","","true","1","true","","","","","","","","","","","","","","","","","","","","","","","","","","","","","","",""
"","VisSearch","html-button-response","255","2246648","0.0-249.0","","","","","1152.7000000029802","VisSearch","","","true","1","true","","","","","","","","","","","","","","","","","","","","","","","","","","","","","","",""
"","VisSearch","html-button-response","256","2247518","0.0-250.0","","","","","868.5","VisSearch","","","true","1","true","","","","","","","","","","","","","","","","","","","","","","","","","","","","","","",""
"","VisSearch","html-button-response","257","2249484","0.0-251.0","","","","","1965.5999999940395","VisSearch","","","true","1","true","","","","","","","","","","","","","","","","","","","","","","","","","","","","","","",""
"","","html-keyboard-response","258","2249486","0.0-252.0","","","","","null","","null","","","","","","","","","","","vissearch-summary-calculation","1","1211.85","","","","","","","","","","","","","","","","","","","","","",""
"","DSB_instruct","html-button-response","259","2250689","0.0-253.0","","","","","1202","DSB_instruct","0","","","","","","","","","","","","","","","","","","","","","","","","","","","","","","","","","","",""
"","DSB 88727968","html-keyboard-response","260","2258042","0.0-254.0","","","","","","DSB","","","","","","[8,8,7,2,7,9,6,8]","8","86972788","","","","","","","","","","","","","","","","","","","","","","","","","","","",""
"","DSBrecall","html-button-response","261","2272968","0.0-255.0","","","","","1611389.199999988","DSBrecall","86752788","","false","","","","","","8","6","0.75","","","","","","","","","","","","","","","","","","","","","","","","",""
"","","dsb-summary-calculation","262","2272982","0.0-256.0","","","","","null","","null","","","","","","","","","","","","","","0","0","0.75","1611389.199999988","","","","","","","","","","","","","","","","","",""
"","image_instruct","html-button-response","263","2274272","0.0-257.0","","","","","1288","image_instruct","0","","","","","","","","","","","","","","","","","","","","","","","","","","","","","","","","","","",""
"","img3","html-keyboard-response","264","2284279","0.0-258.0","","","","","null","img3","null","","","","","","","","","","","","","","","","","","3","2","","","","","","","","","","","","","","","",""
"","DSB_instruct","html-button-response","265","2285766","0.0-259.0","","","","","1485","DSB_instruct","0","","","","","","","","","","","","","","","","","","","","","","","","","","","","","","","","","","",""
"","DSB 06513134","html-keyboard-response","266","2293145","0.0-260.0","","","","","","DSB","","","","","","[0,6,5,1,3,1,3,4]","8","43131560","","","","","","","","","","","","","","","","","","","","","","","","","","","",""
"","DSBrecall","html-button-response","267","2309345","0.0-261.0","","","","","1647766.199999988","DSBrecall","43138670","","false","","","","","","8","5","0.625","","","","","","","","","","","","","","","","","","","","","","","","",""
"","","dsb-summary-calculation","268","2309347","0.0-262.0","","","","","null","","null","","","","","","","","","","","","","","","","","","","","0","0","0.625","1647766.199999988","","","","","","","","","","","",""
"","consolidated-trial-data","consolidated-trial-data","269","2309348","0.0-263.0","","","","","null","consolidated-trial-data","null","","","","","","","","","","","","","","0","0","0.75","","3","2","0","0","0.625","","0","8","39","1","1211.85","1","3","","","","",""
"","","html-button-response","270","2310766","0.0-264.0","","","","","1416","block message","0","","","","","","","","","","","","","","","","","","","","","","","","","","","","","","","","","","",""
"","VS_instruct","html-button-response","271","2312771","0.0-265.0","","","","","2004","VS_instruct","0","","","","","","","","","","","","","","","","","","","","","","","","","","","","","","","","","","",""
"","VisSearch","html-button-response","272","2314060","0.0-266.0","","","","","1288.0999999940395","VisSearch","","","true","1","true","","","","","","","","","","","","","","","","","","","","","","","","","","","","","","",""
"","VisSearch","html-button-response","273","2315010","0.0-267.0","","","","","948.2000000029802","VisSearch","","","true","1","true","","","","","","","","","","","","","","","","","","","","","","","","","","","","","","",""
"","VisSearch","html-button-response","274","2315979","0.0-268.0","","","","","967.9000000059605","VisSearch","","","true","1","true","","","","","","","","","","","","","","","","","","","","","","","","","","","","","","",""
"","VisSearch","html-button-response","275","2316985","0.0-269.0","","","","","1005.0999999940395","VisSearch","","","true","1","true","","","","","","","","","","","","","","","","","","","","","","","","","","","","","","",""
"","VisSearch","html-button-response","276","2318101","0.0-270.0","","","","","1114.7000000029802","VisSearch","","","true","1","true","","","","","","","","","","","","","","","","","","","","","","","","","","","","","","",""
"","VisSearch","html-button-response","277","2319906","0.0-271.0","","","","","1803.7000000029802","VisSearch","","","true","1","true","","","","","","","","","","","","","","","","","","","","","","","","","","","","","","",""
"","VisSearch","html-button-response","278","2321012","0.0-272.0","","","","","1104.5","VisSearch","","","true","1","true","","","","","","","","","","","","","","","","","","","","","","","","","","","","","","",""
"","VisSearch","html-button-response","279","2322228","0.0-273.0","","","","","1215.199999988079","VisSearch","","","true","1","true","","","","","","","","","","","","","","","","","","","","","","","","","","","","","","",""
"","VisSearch","html-button-response","280","2323118","0.0-274.0","","","","","888.2000000029802","VisSearch","","","true","1","true","","","","","","","","","","","","","","","","","","","","","","","","","","","","","","",""
"","VisSearch","html-button-response","281","2324036","0.0-275.0","","","","","917.5","VisSearch","","","true","1","true","","","","","","","","","","","","","","","","","","","","","","","","","","","","","","",""
"","","html-keyboard-response","282","2324052","0.0-276.0","","","","","null","","null","","","","","","","","","","","vissearch-summary-calculation","1","1125.309999999404","","","","","","","","","","","","","","","","","","","","","",""
"","DSB_instruct","html-button-response","283","2325742","0.0-277.0","","","","","1689","DSB_instruct","0","","","","","","","","","","","","","","","","","","","","","","","","","","","","","","","","","","",""
"","DSB 72907283","html-keyboard-response","284","2333075","0.0-278.0","","","","","","DSB","","","","","","[7,2,9,0,7,2,8,3]","8","38270927","","","","","","","","","","","","","","","","","","","","","","","","","","","",""
"","DSBrecall","html-button-response","285","2349421","0.0-279.0","","","","","1687843.299999997","DSBrecall","38270927","","true","","","","","","8","8","1","","","","","","","","","","","","","","","","","","","","","","","","",""
"","","dsb-summary-calculation","286","2349452","0.0-280.0","","","","","null","","null","","","","","","","","","","","","","","1","8","1","1687843.299999997","","","","","","","","","","","","","","","","","",""
"","image_instruct","html-button-response","287","2352025","0.0-281.0","","","","","2571","image_instruct","0","","","","","","","","","","","","","","","","","","","","","","","","","","","","","","","","","","",""
"","img1","html-keyboard-response","288","2362041","0.0-282.0","","","","","null","img1","null","","","","","","","","","","","","","","","","","","1","1","","","","","","","","","","","","","","","",""
"","DSB_instruct","html-button-response","289","2363275","0.0-283.0","","","","","1233","DSB_instruct","0","","","","","","","","","","","","","","","","","","","","","","","","","","","","","","","","","","",""
"","DSB 08133094","html-keyboard-response","290","2370608","0.0-284.0","","","","","","DSB","","","","","","[0,8,1,3,3,0,9,4]","8","49033180","","","","","","","","","","","","","","","","","","","","","","","","","","","",""
"","DSBrecall","html-button-response","291","2384648","0.0-285.0","","","","","1723070.799999997","DSBrecall","49303387","","false","","","","","","8","4","0.5","","","","","","","","","","","","","","","","","","","","","","","","",""
"","","dsb-summary-calculation","292","2384651","0.0-286.0","","","","","null","","null","","","","","","","","","","","","","","","","","","","","0","0","0.5","1723070.799999997","","","","","","","","","","","",""
"","consolidated-trial-data","consolidated-trial-data","293","2384652","0.0-287.0","","","","","null","consolidated-trial-data","null","","","","","","","","","","","","","","1","8","1","","1","1","0","0","0.5","","0","9","39","1","1125.309999999404","1","1","","","","",""
"","","html-button-response","294","2386433","0.0-288.0","","","","","1781","block message","0","","","","","","","","","","","","","","","","","","","","","","","","","","","","","","","","","","",""
"","VS_instruct","html-button-response","295","2387369","0.0-289.0","","","","","935","VS_instruct","0","","","","","","","","","","","","","","","","","","","","","","","","","","","","","","","","","","",""
"","VisSearch","html-button-response","296","2388775","0.0-290.0","","","","","1404.3999999910593","VisSearch","","","true","2","true","","","","","","","","","","","","","","","","","","","","","","","","","","","","","","",""
"","VisSearch","html-button-response","297","2391297","0.0-291.0","","","","","null","VisSearch","","","false","2","true","","","","","","","","","","","","","","","","","","","","","","","","","","","","","","",""
"","VisSearch","html-button-response","298","2392853","0.0-292.0","","","","","1554.5","VisSearch","","","true","2","true","","","","","","","","","","","","","","","","","","","","","","","","","","","","","","",""
"","VisSearch","html-button-response","299","2395008","0.0-293.0","","","","","2153.7000000029802","VisSearch","","","true","2","true","","","","","","","","","","","","","","","","","","","","","","","","","","","","","","",""
"","VisSearch","html-button-response","300","2397514","0.0-294.0","","","","","null","VisSearch","","","false","2","true","","","","","","","","","","","","","","","","","","","","","","","","","","","","","","",""
"","VisSearch","html-button-response","301","2400020","0.0-295.0","","","","","null","VisSearch","","","false","2","true","","","","","","","","","","","","","","","","","","","","","","","","","","","","","","",""
"","VisSearch","html-button-response","302","2401674","0.0-296.0","","","","","1652.7000000029802","VisSearch","","","true","2","true","","","","","","","","","","","","","","","","","","","","","","","","","","","","","","",""
"","VisSearch","html-button-response","303","2402726","0.0-297.0","","","","","1051.300000011921","VisSearch","","","true","2","true","","","","","","","","","","","","","","","","","","","","","","","","","","","","","","",""
"","VisSearch","html-button-response","304","2405085","0.0-298.0","","","","","2358","VisSearch","","","true","2","true","","","","","","","","","","","","","","","","","","","","","","","","","","","","","","",""
"","VisSearch","html-button-response","305","2407608","0.0-299.0","","","","","null","VisSearch","","","false","2","true","","","","","","","","","","","","","","","","","","","","","","","","","","","","","","",""
"","","html-keyboard-response","306","2407614","0.0-300.0","","","","","null","","null","","","","","","","","","","","vissearch-summary-calculation","0.6","1695.7666666681569","","","","","","","","","","","","","","","","","","","","","",""
"","DSB_instruct","html-button-response","307","2409177","0.0-301.0","","","","","1562","DSB_instruct","0","","","","","","","","","","","","","","","","","","","","","","","","","","","","","","","","","","",""
"","DSB 24677131","html-keyboard-response","308","2416531","0.0-302.0","","","","","","DSB","","","","","","[2,4,6,7,7,1,3,1]","8","13177642","","","","","","","","","","","","","","","","","","","","","","","","","","","",""
"","DSBrecall","html-button-response","309","2434093","0.0-303.0","","","","","1772516.099999994","DSBrecall","13623372","","false","","","","","","8","3","0.375","","","","","","","","","","","","","","","","","","","","","","","","",""
"","","dsb-summary-calculation","310","2434111","0.0-304.0","","","","","null","","null","","","","","","","","","","","","","","0","0","0.375","1772516.099999994","","","","","","","","","","","","","","","","","",""
"","image_instruct","html-button-response","311","2435229","0.0-305.0","","","","","1117","image_instruct","0","","","","","","","","","","","","","","","","","","","","","","","","","","","","","","","","","","",""
"","img1","html-keyboard-response","312","2445240","0.0-306.0","","","","","null","img1","null","","","","","","","","","","","","","","","","","","1","1","","","","","","","","","","","","","","","",""
"","DSB_instruct","html-button-response","313","2446831","0.0-307.0","","","","","1591","DSB_instruct","0","","","","","","","","","","","","","","","","","","","","","","","","","","","","","","","","","","",""
"","DSB 05141559","html-keyboard-response","314","2454202","0.0-308.0","","","","","","DSB","","","","","","[0,5,1,4,1,5,5,9]","8","95514150","","","","","","","","","","","","","","","","","","","","","","","","","","","",""
"","DSBrecall","html-button-response","315","2469604","0.0-309.0","","","","","1808027.799999997","DSBrecall","95504150","","false","","","","","","8","7","0.875","","","","","","","","","","","","","","","","","","","","","","","","",""
"","","dsb-summary-calculation","316","2469607","0.0-310.0","","","","","null","","null","","","","","","","","","","","","","","","","","","","","0","0","0.875","1808027.799999997","","","","","","","","","","","",""
"","consolidated-trial-data","consolidated-trial-data","317","2469608","0.0-311.0","","","","","null","consolidated-trial-data","null","","","","","","","","","","","","","","0","0","0.375","","1","1","0","0","0.875","","1","0","39","2","1695.7666666681569","0.6","1","","","","",""
"","attncheck","html-button-response","318","2471964","0.0-312.0","","","","","2355","attncheck","1","","","","","","","","","","","","","","","","","","","","","","","","","","","","","","","true","Continue","","",""
"","","html-button-response","319","2474905","0.0-313.0","","","","","2940","block message","0","","","","","","","","","","","","","","","","","","","","","","","","","","","","","","","","","","",""
"","VS_instruct","html-button-response","320","2476075","0.0-314.0","","","","","1169","VS_instruct","0","","","","","","","","","","","","","","","","","","","","","","","","","","","","","","","","","","",""
"","VisSearch","html-button-response","321","2477625","0.0-315.0","","","","","1549.7000000029802","VisSearch","","","true","2","true","","","","","","","","","","","","","","","","","","","","","","","","","","","","","","",""
"","VisSearch","html-button-response","322","2478745","0.0-316.0","","","","","1118.5","VisSearch","","","true","2","true","","","","","","","","","","","","","","","","","","","","","","","","","","","","","","",""
"","VisSearch","html-button-response","323","2480132","0.0-317.0","","","","","1385.7000000029802","VisSearch","","","true","2","true","","","","","","","","","","","","","","","","","","","","","","","","","","","","","","",""
"","VisSearch","html-button-response","324","2481239","0.0-318.0","","","","","1106","VisSearch","","","true","2","true","","","","","","","","","","","","","","","","","","","","","","","","","","","","","","",""
"","VisSearch","html-button-response","325","2482174","0.0-319.0","","","","","933.0999999940395","VisSearch","","","true","2","true","","","","","","","","","","","","","","","","","","","","","","","","","","","","","","",""
"","VisSearch","html-button-response","326","2484377","0.0-320.0","","","","","2202","VisSearch","","","true","2","true","","","","","","","","","","","","","","","","","","","","","","","","","","","","","","",""
"","VisSearch","html-button-response","327","2486269","0.0-321.0","","","","","1890.7999999970198","VisSearch","","","true","2","true","","","","","","","","","","","","","","","","","","","","","","","","","","","","","","",""
"","VisSearch","html-button-response","328","2488373","0.0-322.0","","","","","2103.1000000089407","VisSearch","","","true","2","true","","","","","","","","","","","","","","","","","","","","","","","","","","","","","","",""
"","VisSearch","html-button-response","329","2490781","0.0-323.0","","","","","2406.2000000029802","VisSearch","","","true","2","true","","","","","","","","","","","","","","","","","","","","","","","","","","","","","","",""
"","VisSearch","html-button-response","330","2492950","0.0-324.0","","","","","2168.0999999940395","VisSearch","","","true","2","true","","","","","","","","","","","","","","","","","","","","","","","","","","","","","","",""
"","","html-keyboard-response","331","2492967","0.0-325.0","","","","","null","","null","","","","","","","","","","","vissearch-summary-calculation","1","1686.320000000298","","","","","","","","","","","","","","","","","","","","","",""
"","DSB_instruct","html-button-response","332","2494471","0.0-326.0","","","","","1501","DSB_instruct","0","","","","","","","","","","","","","","","","","","","","","","","","","","","","","","","","","","",""
"","DSB 24958144","html-keyboard-response","333","2501823","0.0-327.0","","","","","","DSB","","","","","","[2,4,9,5,8,1,4,4]","8","44185942","","","","","","","","","","","","","","","","","","","","","","","","","","","",""
"","DSBrecall","html-button-response","334","2513421","0.0-328.0","","","","","1851844.799999997","DSBrecall","44185492","","false","","","","","","8","6","0.75","","","","","","","","","","","","","","","","","","","","","","","","",""
"","","dsb-summary-calculation","335","2513423","0.0-329.0","","","","","null","","null","","","","","","","","","","","","","","0","0","0.75","1851844.799999997","","","","","","","","","","","","","","","","","",""
"","image_instruct","html-button-response","336","2515229","0.0-330.0","","","","","1804","image_instruct","0","","","","","","","","","","","","","","","","","","","","","","","","","","","","","","","","","","",""
"","img8","html-keyboard-response","337","2525238","0.0-331.0","","","","","null","img8","null","","","","","","","","","","","","","","","","","","2","2","","","","","","","","","","","","","","","",""
"","DSB_instruct","html-button-response","338","2526776","0.0-332.0","","","","","1537","DSB_instruct","0","","","","","","","","","","","","","","","","","","","","","","","","","","","","","","","","","","",""
"","DSB 97093429","html-keyboard-response","339","2534143","0.0-333.0","","","","","","DSB","","","","","","[9,7,0,9,3,4,2,9]","8","92439079","","","","","","","","","","","","","","","","","","","","","","","","","","","",""
"","DSBrecall","html-button-response","340","2551409","0.0-334.0","","","","","1889833.599999994","DSBrecall","92437092","","false","","","","","","8","5","0.625","","","","","","","","","","","","","","","","","","","","","","","","",""
"","","dsb-summary-calculation","341","2551423","0.0-335.0","","","","","null","","null","","","","","","","","","","","","","","","","","","","","0","0","0.625","1889833.599999994","","","","","","","","","","","",""
"","consolidated-trial-data","consolidated-trial-data","342","2551424","0.0-336.0","","","","","null","consolidated-trial-data","null","","","","","","","","","","","","","","0","0","0.75","","2","2","0","0","0.625","","1","1","39","2","1686.320000000298","1","8","","","","",""
"","","html-button-response","343","2552826","0.0-337.0","","","","","1401","block message","0","","","","","","","","","","","","","","","","","","","","","","","","","","","","","","","","","","",""
"","VS_instruct","html-button-response","344","2553779","0.0-338.0","","","","","952","VS_instruct","0","","","","","","","","","","","","","","","","","","","","","","","","","","","","","","","","","","",""
"","VisSearch","html-button-response","345","2555182","0.0-339.0","","","","","1401.5","VisSearch","","","true","2","true","","","","","","","","","","","","","","","","","","","","","","","","","","","","","","",""
"","VisSearch","html-button-response","346","2557073","0.0-340.0","","","","","1890.2000000029802","VisSearch","","","true","2","true","","","","","","","","","","","","","","","","","","","","","","","","","","","","","","",""
"","VisSearch","html-button-response","347","2558493","0.0-341.0","","","","","1418.699999988079","VisSearch","","","true","2","true","","","","","","","","","","","","","","","","","","","","","","","","","","","","","","",""
"","VisSearch","html-button-response","348","2560316","0.0-342.0","","","","","1821.4000000059605","VisSearch","","","true","2","true","","","","","","","","","","","","","","","","","","","","","","","","","","","","","","",""
"","VisSearch","html-button-response","349","2561732","0.0-343.0","","","","","1415.6000000089407","VisSearch","","","true","2","true","","","","","","","","","","","","","","","","","","","","","","","","","","","","","","",""
"","VisSearch","html-button-response","350","2563206","0.0-344.0","","","","","1472.300000011921","VisSearch","","","true","2","true","","","","","","","","","","","","","","","","","","","","","","","","","","","","","","",""
"","VisSearch","html-button-response","351","2565718","0.0-345.0","","","","","null","VisSearch","","","false","2","true","","","","","","","","","","","","","","","","","","","","","","","","","","","","","","",""
"","VisSearch","html-button-response","352","2567431","0.0-346.0","","","","","1711","VisSearch","","","true","2","true","","","","","","","","","","","","","","","","","","","","","","","","","","","","","","",""
"","VisSearch","html-button-response","353","2569939","0.0-347.0","","","","","null","VisSearch","","","false","2","true","","","","","","","","","","","","","","","","","","","","","","","","","","","","","","",""
"","VisSearch","html-button-response","354","2571391","0.0-348.0","","","","","1451.5","VisSearch","","","true","2","true","","","","","","","","","","","","","","","","","","","","","","","","","","","","","","",""
"","","html-keyboard-response","355","2571409","0.0-349.0","","","","","null","","null","","","","","","","","","","","vissearch-summary-calculation","0.8","1572.7750000022352","","","","","","","","","","","","","","","","","","","","","",""
"","DSB_instruct","html-button-response","356","2572732","0.0-350.0","","","","","1321","DSB_instruct","0","","","","","","","","","","","","","","","","","","","","","","","","","","","","","","","","","","",""
"","DSB 88274298","html-keyboard-response","357","2580132","0.0-351.0","","","","","","DSB","","","","","","[8,8,2,7,4,2,9,8]","8","89247288","","","","","","","","","","","","","","","","","","","","","","","","","","","",""
"","DSBrecall","html-button-response","358","2593216","0.0-352.0","","","","","1931641","DSBrecall","89247028","","false","","","","","","8","6","0.75","","","","","","","","","","","","","","","","","","","","","","","","",""
"","","dsb-summary-calculation","359","2593234","0.0-353.0","","","","","null","","null","","","","","","","","","","","","","","0","0","0.75","1931641","","","","","","","","","","","","","","","","","",""
"","image_instruct","html-button-response","360","2594286","0.0-354.0","","","","","1051","image_instruct","0","","","","","","","","","","","","","","","","","","","","","","","","","","","","","","","","","","",""
"","img3","html-keyboard-response","361","2604296","0.0-355.0","","","","","null","img3","null","","","","","","","","","","","","","","","","","","3","2","","","","","","","","","","","","","","","",""
"","DSB_instruct","html-button-response","362","2605669","0.0-356.0","","","","","1373","DSB_instruct","0","","","","","","","","","","","","","","","","","","","","","","","","","","","","","","","","","","",""
"","DSB 66847130","html-keyboard-response","363","2613026","0.0-357.0","","","","","","DSB","","","","","","[6,6,8,4,7,1,3,0]","8","03174866","","","","","","","","","","","","","","","","","","","","","","","","","","","",""
"","DSBrecall","html-button-response","364","2629045","0.0-358.0","","","","","1967470.299999997","DSBrecall","03177678","","false","","","","","","8","4","0.5","","","","","","","","","","","","","","","","","","","","","","","","",""
"","","dsb-summary-calculation","365","2629062","0.0-359.0","","","","","null","","null","","","","","","","","","","","","","","","","","","","","0","0","0.5","1967470.299999997","","","","","","","","","","","",""
"","consolidated-trial-data","consolidated-trial-data","366","2629063","0.0-360.0","","","","","null","consolidated-trial-data","null","","","","","","","","","","","","","","0","0","0.75","","3","2","0","0","0.5","","1","2","39","2","1572.7750000022352","0.8","3","","","","",""
"","","html-button-response","367","2637671","0.0-361.0","","","","","8606","block message","0","","","","","","","","","","","","","","","","","","","","","","","","","","","","","","","","","","",""
"","VS_instruct","html-button-response","368","2638720","0.0-362.0","","","","","1047","VS_instruct","0","","","","","","","","","","","","","","","","","","","","","","","","","","","","","","","","","","",""
"","VisSearch","html-button-response","369","2641228","0.0-363.0","","","","","null","VisSearch","","","false","2","true","","","","","","","","","","","","","","","","","","","","","","","","","","","","","","",""
"","VisSearch","html-button-response","370","2642230","0.0-364.0","","","","","1000","VisSearch","","","true","2","true","","","","","","","","","","","","","","","","","","","","","","","","","","","","","","",""
"","VisSearch","html-button-response","371","2644305","0.0-365.0","","","","","2074.2000000029802","VisSearch","","","true","2","true","","","","","","","","","","","","","","","","","","","","","","","","","","","","","","",""
"","VisSearch","html-button-response","372","2646794","0.0-366.0","","","","","2487.7999999970198","VisSearch","","","true","2","true","","","","","","","","","","","","","","","","","","","","","","","","","","","","","","",""
"","VisSearch","html-button-response","373","2649101","0.0-367.0","","","","","2305.7000000029802","VisSearch","","","true","2","true","","","","","","","","","","","","","","","","","","","","","","","","","","","","","","",""
"","VisSearch","html-button-response","374","2650069","0.0-368.0","","","","","967.0999999940395","VisSearch","","","true","2","true","","","","","","","","","","","","","","","","","","","","","","","","","","","","","","",""
"","VisSearch","html-button-response","375","2651939","0.0-369.0","","","","","1868.5999999940395","VisSearch","","","true","2","true","","","","","","","","","","","","","","","","","","","","","","","","","","","","","","",""
"","VisSearch","html-button-response","376","2654362","0.0-370.0","","","","","2421.699999988079","VisSearch","","","true","2","true","","","","","","","","","","","","","","","","","","","","","","","","","","","","","","",""
"","VisSearch","html-button-response","377","2656869","0.0-371.0","","","","","null","VisSearch","","","false","2","true","","","","","","","","","","","","","","","","","","","","","","","","","","","","","","",""
"","VisSearch","html-button-response","378","2658576","0.0-372.0","","","","","1706.2999999970198","VisSearch","","","true","2","true","","","","","","","","","","","","","","","","","","","","","","","","","","","","","","",""
"","","html-keyboard-response","379","2658607","0.0-373.0","","","","","null","","null","","","","","","","","","","","vissearch-summary-calculation","0.8","1853.9249999970198","","","","","","","","","","","","","","","","","","","","","",""
"","DSB_instruct","html-button-response","380","2659911","0.0-374.0","","","","","1301","DSB_instruct","0","","","","","","","","","","","","","","","","","","","","","","","","","","","","","","","","","","",""
"","DSB 26721098","html-keyboard-response","381","2667263","0.0-375.0","","","","","","DSB","","","","","","[2,6,7,2,1,0,9,8]","8","89012762","","","","","","","","","","","","","","","","","","","","","","","","","","","",""
"","DSBrecall","html-button-response","382","2677858","0.0-376.0","","","","","2016284.099999994","DSBrecall","89012267","","false","","","","","","8","6","0.75","","","","","","","","","","","","","","","","","","","","","","","","",""
"","","dsb-summary-calculation","383","2677860","0.0-377.0","","","","","null","","null","","","","","","","","","","","","","","0","0","0.75","2016284.099999994","","","","","","","","","","","","","","","","","",""
"","image_instruct","html-button-response","384","2679164","0.0-378.0","","","","","1303","image_instruct","0","","","","","","","","","","","","","","","","","","","","","","","","","","","","","","","","","","",""
"","img9","html-keyboard-response","385","2689173","0.0-379.0","","","","","null","img9","null","","","","","","","","","","","","","","","","","","3","1","","","","","","","","","","","","","","","",""
"","DSB_instruct","html-button-response","386","2690996","0.0-380.0","","","","","1822","DSB_instruct","0","","","","","","","","","","","","","","","","","","","","","","","","","","","","","","","","","","",""
"","DSB 54849809","html-keyboard-response","387","2698347","0.0-381.0","","","","","","DSB","","","","","","[5,4,8,4,9,8,0,9]","8","90894845","","","","","","","","","","","","","","","","","","","","","","","","","","","",""
"","DSBrecall","html-button-response","388","2715193","0.0-382.0","","","","","2053620.099999994","DSBrecall","90894490","","false","","","","","","8","5","0.625","","","","","","","","","","","","","","","","","","","","","","","","",""
"","","dsb-summary-calculation","389","2715195","0.0-383.0","","","","","null","","null","","","","","","","","","","","","","","","","","","","","0","0","0.625","2053620.099999994","","","","","","","","","","","",""
"","consolidated-trial-data","consolidated-trial-data","390","2715196","0.0-384.0","","","","","null","consolidated-trial-data","null","","","","","","","","","","","","","","0","0","0.75","","3","1","0","0","0.625","","1","3","39","2","1853.9249999970198","0.8","9","","","","",""
"","","html-button-response","391","2720020","0.0-385.0","","","","","4823","block message","0","","","","","","","","","","","","","","","","","","","","","","","","","","","","","","","","","","",""
"","VS_instruct","html-button-response","392","2721226","0.0-386.0","","","","","1205","VS_instruct","0","","","","","","","","","","","","","","","","","","","","","","","","","","","","","","","","","","",""
"","VisSearch","html-button-response","393","2722696","0.0-387.0","","","","","1468.5999999940395","VisSearch","","","true","2","true","","","","","","","","","","","","","","","","","","","","","","","","","","","","","","",""
"","VisSearch","html-button-response","394","2724535","0.0-388.0","","","","","1837.5999999940395","VisSearch","","","true","2","true","","","","","","","","","","","","","","","","","","","","","","","","","","","","","","",""
"","VisSearch","html-button-response","395","2727056","0.0-389.0","","","","","null","VisSearch","","","false","2","true","","","","","","","","","","","","","","","","","","","","","","","","","","","","","","",""
"","VisSearch","html-button-response","396","2729563","0.0-390.0","","","","","null","VisSearch","","","false","2","true","","","","","","","","","","","","","","","","","","","","","","","","","","","","","","",""
"","VisSearch","html-button-response","397","2731921","0.0-391.0","","","","","2356.6000000089407","VisSearch","","","true","2","true","","","","","","","","","","","","","","","","","","","","","","","","","","","","","","",""
"","VisSearch","html-button-response","398","2733088","0.0-392.0","","","","","1166","VisSearch","","","true","2","true","","","","","","","","","","","","","","","","","","","","","","","","","","","","","","",""
"","VisSearch","html-button-response","399","2734592","0.0-393.0","","","","","1502.5999999940395","VisSearch","","","true","2","true","","","","","","","","","","","","","","","","","","","","","","","","","","","","","","",""
"","VisSearch","html-button-response","400","2735926","0.0-394.0","","","","","1333.5","VisSearch","","","true","2","true","","","","","","","","","","","","","","","","","","","","","","","","","","","","","","",""
"","VisSearch","html-button-response","401","2738452","0.0-395.0","","","","","null","VisSearch","","","false","2","true","","","","","","","","","","","","","","","","","","","","","","","","","","","","","","",""
"","VisSearch","html-button-response","402","2740658","0.0-396.0","","","","","2204.800000011921","VisSearch","","","true","2","true","","","","","","","","","","","","","","","","","","","","","","","","","","","","","","",""
"","","html-keyboard-response","403","2740661","0.0-397.0","","","","","null","","null","","","","","","","","","","","vissearch-summary-calculation","0.7","1695.6714285718542","","","","","","","","","","","","","","","","","","","","","",""
"","DSB_instruct","html-button-response","404","2742433","0.0-398.0","","","","","1770","DSB_instruct","0","","","","","","","","","","","","","","","","","","","","","","","","","","","","","","","","","","",""
"","DSB 70726379","html-keyboard-response","405","2749816","0.0-399.0","","","","","","DSB","","","","","","[7,0,7,2,6,3,7,9]","8","97362707","","","","","","","","","","","","","","","","","","","","","","","","","","","",""
"","DSBrecall","html-button-response","406","2765393","0.0-400.0","","","","","2103820.399999991","DSBrecall","97362093","","false","","","","","","8","5","0.625","","","","","","","","","","","","","","","","","","","","","","","","",""
"","","dsb-summary-calculation","407","2765395","0.0-401.0","","","","","null","","null","","","","","","","","","","","","","","0","0","0.625","2103820.399999991","","","","","","","","","","","","","","","","","",""
"","image_instruct","html-button-response","408","2766780","0.0-402.0","","","","","1384","image_instruct","0","","","","","","","","","","","","","","","","","","","","","","","","","","","","","","","","","","",""
"","img5","html-keyboard-response","409","2776788","0.0-403.0","","","","","null","img5","null","","","","","","","","","","","","","","","","","","2","1","","","","","","","","","","","","","","","",""
"","DSB_instruct","html-button-response","410","2778061","0.0-404.0","","","","","1272","DSB_instruct","0","","","","","","","","","","","","","","","","","","","","","","","","","","","","","","","","","","",""
"","DSB 48656948","html-keyboard-response","411","2785444","0.0-405.0","","","","","","DSB","","","","","","[4,8,6,5,6,9,4,8]","8","84965684","","","","","","","","","","","","","","","","","","","","","","","","","","","",""
"","DSBrecall","html-button-response","412","2803529","0.0-406.0","","","","","2141956.599999994","DSBrecall","84960176","","false","","","","","","8","4","0.5","","","","","","","","","","","","","","","","","","","","","","","","",""
"","","dsb-summary-calculation","413","2803559","0.0-407.0","","","","","null","","null","","","","","","","","","","","","","","","","","","","","0","0","0.5","2141956.599999994","","","","","","","","","","","",""
"","consolidated-trial-data","consolidated-trial-data","414","2803561","0.0-408.0","","","","","null","consolidated-trial-data","null","","","","","","","","","","","","","","0","0","0.625","","2","1","0","0","0.5","","1","4","39","2","1695.6714285718542","0.7","5","","","","",""
"","","html-button-response","415","2806967","0.0-409.0","","","","","3405","block message","0","","","","","","","","","","","","","","","","","","","","","","","","","","","","","","","","","","",""
"","VS_instruct","html-button-response","416","2807954","0.0-410.0","","","","","986","VS_instruct","0","","","","","","","","","","","","","","","","","","","","","","","","","","","","","","","","","","",""
"","VisSearch","html-button-response","417","2809428","0.0-411.0","","","","","1472.5","VisSearch","","","true","2","true","","","","","","","","","","","","","","","","","","","","","","","","","","","","","","",""
"","VisSearch","html-button-response","418","2810595","0.0-412.0","","","","","1166.3999999910593","VisSearch","","","true","2","true","","","","","","","","","","","","","","","","","","","","","","","","","","","","","","",""
"","VisSearch","html-button-response","419","2813108","0.0-413.0","","","","","null","VisSearch","","","false","2","true","","","","","","","","","","","","","","","","","","","","","","","","","","","","","","",""
"","VisSearch","html-button-response","420","2814641","0.0-414.0","","","","","1531.7999999970198","VisSearch","","","true","2","true","","","","","","","","","","","","","","","","","","","","","","","","","","","","","","",""
"","VisSearch","html-button-response","421","2816677","0.0-415.0","","","","","2035","VisSearch","","","true","2","true","","","","","","","","","","","","","","","","","","","","","","","","","","","","","","",""
"","VisSearch","html-button-response","422","2819188","0.0-416.0","","","","","null","VisSearch","","","false","2","true","","","","","","","","","","","","","","","","","","","","","","","","","","","","","","",""
"","VisSearch","html-button-response","423","2820990","0.0-417.0","","","","","1801.300000011921","VisSearch","","","true","2","true","","","","","","","","","","","","","","","","","","","","","","","","","","","","","","",""
"","VisSearch","html-button-response","424","2823507","0.0-418.0","","","","","null","VisSearch","","","false","2","true","","","","","","","","","","","","","","","","","","","","","","","","","","","","","","",""
"","VisSearch","html-button-response","425","2825622","0.0-419.0","","","","","2113.4000000059605","VisSearch","","","true","2","true","","","","","","","","","","","","","","","","","","","","","","","","","","","","","","",""
"","VisSearch","html-button-response","426","2827809","0.0-420.0","","","","","2185.9000000059605","VisSearch","","","true","2","true","","","","","","","","","","","","","","","","","","","","","","","","","","","","","","",""
"","","html-keyboard-response","427","2827824","0.0-421.0","","","","","null","","null","","","","","","","","","","","vissearch-summary-calculation","0.7","1758.0428571445602","","","","","","","","","","","","","","","","","","","","","",""
"","DSB_instruct","html-button-response","428","2829280","0.0-422.0","","","","","1454","DSB_instruct","0","","","","","","","","","","","","","","","","","","","","","","","","","","","","","","","","","","",""
"","DSB 85523256","html-keyboard-response","429","2836647","0.0-423.0","","","","","","DSB","","","","","","[8,5,5,2,3,2,5,6]","8","65232558","","","","","","","","","","","","","","","","","","","","","","","","","","","",""
"","DSBrecall","html-button-response","430","2851068","0.0-424.0","","","","","2189496.399999991","DSBrecall","65382558","","false","","","","","","8","6","0.75","","","","","","","","","","","","","","","","","","","","","","","","",""
"","","dsb-summary-calculation","431","2851086","0.0-425.0","","","","","null","","null","","","","","","","","","","","","","","0","0","0.75","2189496.399999991","","","","","","","","","","","","","","","","","",""
"","image_instruct","html-button-response","432","2852338","0.0-426.0","","","","","1251","image_instruct","0","","","","","","","","","","","","","","","","","","","","","","","","","","","","","","","","","","",""
"","img2","html-keyboard-response","433","2862348","0.0-427.0","","","","","null","img2","null","","","","","","","","","","","","","","","","","","2","2","","","","","","","","","","","","","","","",""
"","DSB_instruct","html-button-response","434","2865624","0.0-428.0","","","","","3275","DSB_instruct","0","","","","","","","","","","","","","","","","","","","","","","","","","","","","","","","","","","",""
"","DSB 17317849","html-keyboard-response","435","2873010","0.0-429.0","","","","","","DSB","","","","","","[1,7,3,1,7,8,4,9]","8","94871371","","","","","","","","","","","","","","","","","","","","","","","","","","","",""
"","DSBrecall","html-button-response","436","2887732","0.0-430.0","","","","","2226161.299999997","DSBrecall","98711331","","false","","","","","","8","4","0.5","","","","","","","","","","","","","","","","","","","","","","","","",""
"","","dsb-summary-calculation","437","2887750","0.0-431.0","","","","","null","","null","","","","","","","","","","","","","","","","","","","","0","0","0.5","2226161.299999997","","","","","","","","","","","",""
"","consolidated-trial-data","consolidated-trial-data","438","2887751","0.0-432.0","","","","","null","consolidated-trial-data","null","","","","","","","","","","","","","","0","0","0.75","","2","2","0","0","0.5","","1","5","39","2","1758.0428571445602","0.7","2","","","","",""
