"success","task","trial_type","trial_index","time_elapsed","internal_node_id","participant_age","participant_gender","timeout","failed_images","failed_audio","failed_video","rt","stimulus","response","pixels_per_unit","is_correct","search_difficulty","enhanced","originalDigits","currentSpanLength","reversedDigits","span_length","correct_digits","digit_accuracy","attention_check_correct","target_button","trial_Type","VISsearch_propcorrect","VISsearch_meanRT","DSBpre_propcorrect","DSBpre_maxspan","DSBpre_digitaccuracy","DSBpre_rt","vegetationLevel","imageType","DSBpost_propcorrect","DSBpost_maxspan","DSBpost_digitaccuracy","DSBpost_rt","block","trial","trialid","VisDifficulty","Vis_meanRT","Vis_propCorr","imageIDX","question_order","image_id","iamge_set"
"true","fullscreen_enter","fullscreen","0","4561","0.0-0.0","28","female","","","","","","","","","","","","","","","","","","","","","","","","","","","","","","","","","","","","","","","","","",""
"true","","preload","1","5207","0.0-1.0","28","female","false","[]","[]","[]","","","","","","","","","","","","","","","","","","","","","","","","","","","","","","","","","","","","","",""
"","wecome","html-button-response","2","14124","0.0-2.0","28","female","","","","","8916","welcome_msg","0","","","","","","","","","","","","","","","","","","","","","","","","","","","","","","","","","","",""
"","PIS","html-button-response","3","25909","0.0-3.0","28","female","","","","","11780","PISdoc","0","","","","","","","","","","","","","","","","","","","","","","","","","","","","","","","","","","",""
"","demographics","survey-html-form","4","33244","0.0-4.0","28","female","","","","","7332","","{""age"":""28"",""gender"":""female""}","","","","","","","","","","","","","","","","","","","","","","","","","","","","","","","","","","",""
"","","html-button-response","5","94343","0.0-5.0","28","female","","","","","61096","<div style= ""font-size: 24px; color: white; 
        position: absolute;
         top: 50%;left: 50%; transform: translate(-50%, -50%)"">        

            <br>Welcome to the experiment.<br> 
            Please read the instructions carefully.<br>
            There are two task types.<br><br>
            In the visual search task:<br>
            You must search the screen for either a red <font color = ""red"">""T"" </font>
            or blue <font color = ""blue""> ""O"" </font> hidden among red <font color = ""red""> ""X""s </font>.
            <br><br> In the digit task:<br> You must recall a list of numbers in reverse order. </div>
        ","0","","","","","","","","","","","","","","","","","","","","","","","","","","","","","","","","","","",""
"","calibration","html-button-response","6","130408","0.0-6.0","28","female","","","","","36063","calibration","0","151","","","","","","","","","","","","","","","","","","","","","","","","","","","","","","","","","",""
"","VS_instruct","html-button-response","7","135375","0.0-7.0","28","female","","","","","4965","VS_instruct","0","","","","","","","","","","","","","","","","","","","","","","","","","","","","","","","","","","",""
"","VisSearch","html-button-response","8","137474","0.0-8.0","28","female","","","","","2097.3999999910593","VisSearch","","","true","1","true","","","","","","","","","","","","","","","","","","","","","","","","","","","","","","",""
"","VisSearch","html-button-response","9","138791","0.0-9.0","28","female","","","","","1315.5","VisSearch","","","true","1","true","","","","","","","","","","","","","","","","","","","","","","","","","","","","","","",""
"","VisSearch","html-button-response","10","139807","0.0-10.0","28","female","","","","","1014.5999999940395","VisSearch","","","true","1","true","","","","","","","","","","","","","","","","","","","","","","","","","","","","","","",""
"","VisSearch","html-button-response","11","141208","0.0-11.0","28","female","","","","","1399.5","VisSearch","","","true","1","true","","","","","","","","","","","","","","","","","","","","","","","","","","","","","","",""
"","VisSearch","html-button-response","12","142558","0.0-12.0","28","female","","","","","1348.5","VisSearch","","","true","1","true","","","","","","","","","","","","","","","","","","","","","","","","","","","","","","",""
"","VisSearch","html-button-response","13","144008","0.0-13.0","28","female","","","","","1448.699999988079","VisSearch","","","true","1","true","","","","","","","","","","","","","","","","","","","","","","","","","","","","","","",""
"","VisSearch","html-button-response","14","146041","0.0-14.0","28","female","","","","","2032","VisSearch","","","true","1","true","","","","","","","","","","","","","","","","","","","","","","","","","","","","","","",""
"","VisSearch","html-button-response","15","147924","0.0-15.0","28","female","","","","","1882.1000000089407","VisSearch","","","true","1","true","","","","","","","","","","","","","","","","","","","","","","","","","","","","","","",""
"","VisSearch","html-button-response","16","149474","0.0-16.0","28","female","","","","","1548.5","VisSearch","","","true","1","true","","","","","","","","","","","","","","","","","","","","","","","","","","","","","","",""
"","VisSearch","html-button-response","17","150658","0.0-17.0","28","female","","","","","1182.2999999970198","VisSearch","","","true","1","true","","","","","","","","","","","","","","","","","","","","","","","","","","","","","","",""
"","DSB_instruct","html-button-response","18","165962","0.0-18.0","28","female","","","","","15303","DSB_instruct","0","","","","","","","","","","","","","","","","","","","","","","","","","","","","","","","","","","",""
"","DSB 5932","html-keyboard-response","19","169680","0.0-19.0","28","female","","","","","","DSB","","","","","","[5,9,3,2]","4","2395","","","","","","","","","","","","","","","","","","","","","","","","","","","",""
"","DSBrecall","html-button-response","20","179925","0.0-20.0","28","female","","","","","182363.60000000894","DSBrecall","2395","","true","","","","","","4","4","1","","","","","","","","","","","","","","","","","","","","","","","","",""
"","feedback","html-button-response","21","199692","0.0-21.0","28","female","","","","","19765","<div class =""experiment-text""; style=""font-size: 24.16px;"">
            Correct!<br><br>
            Good job!
            </div>","0","","","","","","","","","","","","","","","","","","","","","","","","","","","","","","","","","","",""
"","DSB_instruct","html-button-response","22","206976","0.0-22.0","28","female","","","","","7282","DSB_instruct","0","","","","","","","","","","","","","","","","","","","","","","","","","","","","","","","","","","",""
"","DSB 76413692","html-keyboard-response","23","214303","0.0-23.0","28","female","","","","","","DSB","","","","","","[7,6,4,1,3,6,9,2]","8","29631467","","","","","","","","","","","","","","","","","","","","","","","","","","","",""
"","DSBrecall","html-button-response","24","253159","0.0-24.0","28","female","","","","","255596.10000000894","DSBrecall","29631467","","true","","","","","","8","8","1","","","","","","","","","","","","","","","","","","","","","","","","",""
"","feedback","html-button-response","25","260176","0.0-25.0","28","female","","","","","7016","<div class =""experiment-text""; style=""font-size: 24.16px;"">
            Correct!<br><br>
            Good job!
            </div>","0","","","","","","","","","","","","","","","","","","","","","","","","","","","","","","","","","","",""
"","VS_instruct","html-button-response","26","264826","0.0-26.0","28","female","","","","","4648","VS_instruct","0","","","","","","","","","","","","","","","","","","","","","","","","","","","","","","","","","","",""
"","VisSearch","html-button-response","27","266225","0.0-27.0","28","female","","","","","1398.199999988079","VisSearch","","","true","2","true","","","","","","","","","","","","","","","","","","","","","","","","","","","","","","",""
"","VisSearch","html-button-response","28","267625","0.0-28.0","28","female","","","","","1399.2000000029802","VisSearch","","","true","2","true","","","","","","","","","","","","","","","","","","","","","","","","","","","","","","",""
"","VisSearch","html-button-response","29","269092","0.0-29.0","28","female","","","","","1465.2999999970198","VisSearch","","","true","2","true","","","","","","","","","","","","","","","","","","","","","","","","","","","","","","",""
"","VisSearch","html-button-response","30","271593","0.0-30.0","28","female","","","","","null","VisSearch","","","false","2","true","","","","","","","","","","","","","","","","","","","","","","","","","","","","","","",""
"","VisSearch","html-button-response","31","273259","0.0-31.0","28","female","","","","","1664.2000000029802","VisSearch","","","true","2","true","","","","","","","","","","","","","","","","","","","","","","","","","","","","","","",""
"","VisSearch","html-button-response","32","275025","0.0-32.0","28","female","","","","","1765.4000000059605","VisSearch","","","true","2","true","","","","","","","","","","","","","","","","","","","","","","","","","","","","","","",""
"","VisSearch","html-button-response","33","276592","0.0-33.0","28","female","","","","","1566.0999999940395","VisSearch","","","true","2","true","","","","","","","","","","","","","","","","","","","","","","","","","","","","","","",""
"","VisSearch","html-button-response","34","278092","0.0-34.0","28","female","","","","","1498.800000011921","VisSearch","","","true","2","true","","","","","","","","","","","","","","","","","","","","","","","","","","","","","","",""
"","VisSearch","html-button-response","35","279275","0.0-35.0","28","female","","","","","1181.9000000059605","VisSearch","","","true","2","true","","","","","","","","","","","","","","","","","","","","","","","","","","","","","","",""
"","VisSearch","html-button-response","36","280859","0.0-36.0","28","female","","","","","1582.5","VisSearch","","","true","2","true","","","","","","","","","","","","","","","","","","","","","","","","","","","","","","",""
"","DSB_instruct","html-button-response","37","283326","0.0-37.0","28","female","","","","","2466","DSB_instruct","0","","","","","","","","","","","","","","","","","","","","","","","","","","","","","","","","","","",""
"","DSB 2526","html-keyboard-response","38","287042","0.0-38.0","28","female","","","","","","DSB","","","","","","[2,5,2,6]","4","6252","","","","","","","","","","","","","","","","","","","","","","","","","","","",""
"","DSBrecall","html-button-response","39","297491","0.0-39.0","28","female","","","","","299928","DSBrecall","6252","","true","","","","","","4","4","1","","","","","","","","","","","","","","","","","","","","","","","","",""
"","feedback","html-button-response","40","300593","0.0-40.0","28","female","","","","","3100","<div class =""experiment-text""; style=""font-size: 24.16px;"">
            Correct!<br><br>
            Good job!
            </div>","0","","","","","","","","","","","","","","","","","","","","","","","","","","","","","","","","","","",""
"","DSB_instruct","html-button-response","41","303093","0.0-41.0","28","female","","","","","2499","DSB_instruct","0","","","","","","","","","","","","","","","","","","","","","","","","","","","","","","","","","","",""
"","DSB 55960283","html-keyboard-response","42","310420","0.0-42.0","28","female","","","","","","DSB","","","","","","[5,5,9,6,0,2,8,3]","8","38206955","","","","","","","","","","","","","","","","","","","","","","","","","","","",""
"","DSBrecall","html-button-response","43","341759","0.0-43.0","28","female","","","","","344195.3000000119","DSBrecall","38260555","","false","","","","","","8","5","0.625","","","","","","","","","","","","","","","","","","","","","","","","",""
"","feedback","html-button-response","44","343743","0.0-44.0","28","female","","","","","1982","<div class =""experiment-text""; style=""font-size: 24.16px;"">
            Incorrect.<br><br>
            Try to recall in the reversed order.
            </div>","0","","","","","","","","","","","","","","","","","","","","","","","","","","","","","","","","","","",""
"","expIntructions","html-button-response","45","350643","0.0-45.0-0.0","28","female","","","","","6898","expInstruc","0","","","","","","","","","","","","","","","","","","","","","","","","","","","","","","","","","","",""
"","expIntructions","html-button-response","46","354193","0.0-45.0-0.1","28","female","","","","","3548","expInstruc","0","","","","","","","","","","","","","","","","","","","","","","","","","","","","","","","","","","",""
"","expIntructions","html-button-response","47","358710","0.0-45.0-0.2","28","female","","","","","4516","expInstruc","0","","","","","","","","","","","","","","","","","","","","","","","","","","","","","","","","","","",""
"","expIntructions","html-button-response","48","362344","0.0-45.0-0.3","28","female","","","","","3632","expInstruc","0","","","","","","","","","","","","","","","","","","","","","","","","","","","","","","","","","","",""
"","expIntructions","html-button-response","49","371410","0.0-45.0-0.4","28","female","","","","","9065","expInstruc","0","","","","","","","","","","","","","","","","","","","","","","","","","","","","","","","","","","",""
"","expIntructions","html-button-response","50","378476","0.0-45.0-0.5","28","female","","","","","7065","expInstruc","0","","","","","","","","","","","","","","","","","","","","","","","","","","","","","","","","","","",""
"","expIntructions","html-button-response","51","380244","0.0-45.0-0.6","28","female","","","","","1766","expInstruc","0","","","","","","","","","","","","","","","","","","","","","","","","","","","","","","","","","","",""
"","attncheck","html-button-response","52","384594","0.0-46.0","28","female","","","","","4348","attncheck","1","","","","","","","","","","","true","Continue","","","","","","","","","","","","","","","","","","","","","","",""
"","","html-button-response","53","390327","0.0-47.0","28","female","","","","","5731","block message","0","","","","","","","","","","","","","","","","","","","","","","","","","","","","","","","","","","",""
"","VS_instruct","html-button-response","54","391511","0.0-48.0","28","female","","","","","1182","VS_instruct","0","","","","","","","","","","","","","","","","","","","","","","","","","","","","","","","","","","",""
"","VisSearch","html-button-response","55","393959","0.0-49.0","28","female","","","","","2447.3999999910593","VisSearch","","","true","2","true","","","","","","","","","","","","","","","","","","","","","","","","","","","","","","",""
"","VisSearch","html-button-response","56","396461","0.0-50.0","28","female","","","","","null","VisSearch","","","false","2","true","","","","","","","","","","","","","","","","","","","","","","","","","","","","","","",""
"","VisSearch","html-button-response","57","398660","0.0-51.0","28","female","","","","","2197.800000011921","VisSearch","","","true","2","true","","","","","","","","","","","","","","","","","","","","","","","","","","","","","","",""
"","VisSearch","html-button-response","58","400293","0.0-52.0","28","female","","","","","1631.7000000029802","VisSearch","","","true","2","true","","","","","","","","","","","","","","","","","","","","","","","","","","","","","","",""
"","VisSearch","html-button-response","59","402793","0.0-53.0","28","female","","","","","2498.7999999970198","VisSearch","","","true","2","true","","","","","","","","","","","","","","","","","","","","","","","","","","","","","","",""
"","VisSearch","html-button-response","60","405295","0.0-54.0","28","female","","","","","null","VisSearch","","","false","2","true","","","","","","","","","","","","","","","","","","","","","","","","","","","","","","",""
"","VisSearch","html-button-response","61","406460","0.0-55.0","28","female","","","","","1163.7000000029802","VisSearch","","","true","2","true","","","","","","","","","","","","","","","","","","","","","","","","","","","","","","",""
"","VisSearch","html-button-response","62","408043","0.0-56.0","28","female","","","","","1582.5","VisSearch","","","true","2","true","","","","","","","","","","","","","","","","","","","","","","","","","","","","","","",""
"","VisSearch","html-button-response","63","409377","0.0-57.0","28","female","","","","","1332.199999988079","VisSearch","","","true","2","true","","","","","","","","","","","","","","","","","","","","","","","","","","","","","","",""
"","VisSearch","html-button-response","64","410926","0.0-58.0","28","female","","","","","1548.7000000029802","VisSearch","","","true","2","true","","","","","","","","","","","","","","","","","","","","","","","","","","","","","","",""
"","","html-keyboard-response","65","410939","0.0-59.0","28","female","","","","","null","","null","","","","","","","","","","","","","vissearch-summary-calculation","0.8","1800.3499999996275","","","","","","","","","","","","","","","","","","","",""
"","DSB_instruct","html-button-response","66","413678","0.0-60.0","28","female","","","","","2736","DSB_instruct","0","","","","","","","","","","","","","","","","","","","","","","","","","","","","","","","","","","",""
"","DSB 04706582","html-keyboard-response","67","421009","0.0-61.0","28","female","","","","","","DSB","","","","","","[0,4,7,0,6,5,8,2]","8","28560740","","","","","","","","","","","","","","","","","","","","","","","","","","","",""
"","DSBrecall","html-button-response","68","437577","0.0-62.0","28","female","","","","","440011","DSBrecall","28567400","","false","","","","","","8","5","0.625","","","","","","","","","","","","","","","","","","","","","","","","",""
"","","dsb-summary-calculation","69","437579","0.0-63.0","28","female","","","","","null","","null","","","","","","","","","","","","","","","","0","0","0.625","440011","","","","","","","","","","","","","","","",""
"","image_instruct","html-button-response","70","440727","0.0-64.0","28","female","","","","","3147","image_instruct","0","","","","","","","","","","","","","","","","","","","","","","","","","","","","","","","","","","",""
"","img7","html-keyboard-response","71","455731","0.0-65.0","28","female","","","","","null","img7","null","","","","","","","","","","","","","","","","","","","","1","2","","","","","","","","","","","","","",""
"","DSB_instruct","html-button-response","72","462044","0.0-66.0","28","female","","","","","6312","DSB_instruct","0","","","","","","","","","","","","","","","","","","","","","","","","","","","","","","","","","","",""
"","DSB 02513955","html-keyboard-response","73","469373","0.0-67.0","28","female","","","","","","DSB","","","","","","[0,2,5,1,3,9,5,5]","8","55931520","","","","","","","","","","","","","","","","","","","","","","","","","","","",""
"","DSBrecall","html-button-response","74","495144","0.0-68.0","28","female","","","","","497577.3000000119","DSBrecall","55931520","","true","","","","","","8","8","1","","","","","","","","","","","","","","","","","","","","","","","","",""
"","","dsb-summary-calculation","75","495146","0.0-69.0","28","female","","","","","null","","null","","","","","","","","","","","","","","","","","","","","","","1","8","1","497577.3000000119","","","","","","","","","",""
"","consolidated-trial-data","consolidated-trial-data","76","495147","0.0-70.0","28","female","","","","","null","consolidated-trial-data","null","","","","","","","","","","","","","","","","0","0","0.625","","1","2","1","8","1","","0","0","39","2","1800.3499999996275","0.8","7","","",""
"","","html-button-response","77","501261","0.0-71.0","28","female","","","","","6113","block message","0","","","","","","","","","","","","","","","","","","","","","","","","","","","","","","","","","","",""
"","VS_instruct","html-button-response","78","502845","0.0-72.0","28","female","","","","","1583","VS_instruct","0","","","","","","","","","","","","","","","","","","","","","","","","","","","","","","","","","","",""
"","VisSearch","html-button-response","79","504560","0.0-73.0","28","female","","","","","1713.7999999970198","VisSearch","","","true","2","true","","","","","","","","","","","","","","","","","","","","","","","","","","","","","","",""
"","VisSearch","html-button-response","80","505977","0.0-74.0","28","female","","","","","1415.800000011921","VisSearch","","","true","2","true","","","","","","","","","","","","","","","","","","","","","","","","","","","","","","",""
"","VisSearch","html-button-response","81","507527","0.0-75.0","28","female","","","","","1548.7999999970198","VisSearch","","","true","2","true","","","","","","","","","","","","","","","","","","","","","","","","","","","","","","",""
"","VisSearch","html-button-response","82","509461","0.0-76.0","28","female","","","","","1932.5999999940395","VisSearch","","","true","2","true","","","","","","","","","","","","","","","","","","","","","","","","","","","","","","",""
"","VisSearch","html-button-response","83","511964","0.0-77.0","28","female","","","","","null","VisSearch","","","false","2","true","","","","","","","","","","","","","","","","","","","","","","","","","","","","","","",""
"","VisSearch","html-button-response","84","513394","0.0-78.0","28","female","","","","","1429.5","VisSearch","","","true","2","true","","","","","","","","","","","","","","","","","","","","","","","","","","","","","","",""
"","VisSearch","html-button-response","85","515810","0.0-79.0","28","female","","","","","2415.2000000029802","VisSearch","","","true","2","true","","","","","","","","","","","","","","","","","","","","","","","","","","","","","","",""
"","VisSearch","html-button-response","86","517144","0.0-80.0","28","female","","","","","1332.2999999970198","VisSearch","","","true","2","true","","","","","","","","","","","","","","","","","","","","","","","","","","","","","","",""
"","VisSearch","html-button-response","87","518578","0.0-81.0","28","female","","","","","1432.7000000029802","VisSearch","","","true","2","true","","","","","","","","","","","","","","","","","","","","","","","","","","","","","","",""
"","VisSearch","html-button-response","88","519794","0.0-82.0","28","female","","","","","1215.1000000089407","VisSearch","","","true","2","true","","","","","","","","","","","","","","","","","","","","","","","","","","","","","","",""
"","","html-keyboard-response","89","519806","0.0-83.0","28","female","","","","","null","","null","","","","","","","","","","","","","vissearch-summary-calculation","0.9","1603.9777777791023","","","","","","","","","","","","","","","","","","","",""
"","DSB_instruct","html-button-response","90","521395","0.0-84.0","28","female","","","","","1588","DSB_instruct","0","","","","","","","","","","","","","","","","","","","","","","","","","","","","","","","","","","",""
"","DSB 05571469","html-keyboard-response","91","528724","0.0-85.0","28","female","","","","","","DSB","","","","","","[0,5,5,7,1,4,6,9]","8","96417550","","","","","","","","","","","","","","","","","","","","","","","","","","","",""
"","DSBrecall","html-button-response","92","548811","0.0-86.0","28","female","","","","","551243.700000003","DSBrecall","96755049","","false","","","","","","8","2","0.25","","","","","","","","","","","","","","","","","","","","","","","","",""
"","","dsb-summary-calculation","93","548813","0.0-87.0","28","female","","","","","null","","null","","","","","","","","","","","","","","","","0","0","0.25","551243.700000003","","","","","","","","","","","","","","","",""
"","image_instruct","html-button-response","94","553129","0.0-88.0","28","female","","","","","4314","image_instruct","0","","","","","","","","","","","","","","","","","","","","","","","","","","","","","","","","","","",""
"","img5","html-keyboard-response","95","568131","0.0-89.0","28","female","","","","","null","img5","null","","","","","","","","","","","","","","","","","","","","2","1","","","","","","","","","","","","","",""
"","DSB_instruct","html-button-response","96","570695","0.0-90.0","28","female","","","","","2563","DSB_instruct","0","","","","","","","","","","","","","","","","","","","","","","","","","","","","","","","","","","",""
"","DSB 99230451","html-keyboard-response","97","578021","0.0-91.0","28","female","","","","","","DSB","","","","","","[9,9,2,3,0,4,5,1]","8","15403299","","","","","","","","","","","","","","","","","","","","","","","","","","","",""
"","DSBrecall","html-button-response","98","591095","0.0-92.0","28","female","","","","","593526.6000000089","DSBrecall","15403299","","true","","","","","","8","8","1","","","","","","","","","","","","","","","","","","","","","","","","",""
"","","dsb-summary-calculation","99","591097","0.0-93.0","28","female","","","","","null","","null","","","","","","","","","","","","","","","","","","","","","","1","8","1","593526.6000000089","","","","","","","","","",""
"","consolidated-trial-data","consolidated-trial-data","100","591098","0.0-94.0","28","female","","","","","null","consolidated-trial-data","null","","","","","","","","","","","","","","","","0","0","0.25","","2","1","1","8","1","","0","1","39","2","1603.9777777791023","0.9","5","","",""
"","","html-button-response","101","613713","0.0-95.0","28","female","","","","","22614","block message","0","","","","","","","","","","","","","","","","","","","","","","","","","","","","","","","","","","",""
"","VS_instruct","html-button-response","102","615862","0.0-96.0","28","female","","","","","2148","VS_instruct","0","","","","","","","","","","","","","","","","","","","","","","","","","","","","","","","","","","",""
"","VisSearch","html-button-response","103","616978","0.0-97.0","28","female","","","","","1114.6000000089407","VisSearch","","","true","2","true","","","","","","","","","","","","","","","","","","","","","","","","","","","","","","",""
"","VisSearch","html-button-response","104","617845","0.0-98.0","28","female","","","","","865.5","VisSearch","","","true","2","true","","","","","","","","","","","","","","","","","","","","","","","","","","","","","","",""
"","VisSearch","html-button-response","105","618928","0.0-99.0","28","female","","","","","1082","VisSearch","","","true","2","true","","","","","","","","","","","","","","","","","","","","","","","","","","","","","","",""
"","VisSearch","html-button-response","106","619961","0.0-100.0","28","female","","","","","1032.2000000029802","VisSearch","","","true","2","true","","","","","","","","","","","","","","","","","","","","","","","","","","","","","","",""
"","VisSearch","html-button-response","107","621595","0.0-101.0","28","female","","","","","1632.3999999910593","VisSearch","","","true","2","true","","","","","","","","","","","","","","","","","","","","","","","","","","","","","","",""
"","VisSearch","html-button-response","108","622594","0.0-102.0","28","female","","","","","998.3999999910593","VisSearch","","","true","2","true","","","","","","","","","","","","","","","","","","","","","","","","","","","","","","",""
"","VisSearch","html-button-response","109","624411","0.0-103.0","28","female","","","","","1816.5","VisSearch","","","true","2","true","","","","","","","","","","","","","","","","","","","","","","","","","","","","","","",""
"","VisSearch","html-button-response","110","625745","0.0-104.0","28","female","","","","","1332.7000000029802","VisSearch","","","true","2","true","","","","","","","","","","","","","","","","","","","","","","","","","","","","","","",""
"","VisSearch","html-button-response","111","627445","0.0-105.0","28","female","","","","","1699","VisSearch","","","true","2","true","","","","","","","","","","","","","","","","","","","","","","","","","","","","","","",""
"","VisSearch","html-button-response","112","628545","0.0-106.0","28","female","","","","","1098.2999999970198","VisSearch","","","true","2","true","","","","","","","","","","","","","","","","","","","","","","","","","","","","","","",""
"","","html-keyboard-response","113","628558","0.0-107.0","28","female","","","","","null","","null","","","","","","","","","","","","","vissearch-summary-calculation","1","1267.159999999404","","","","","","","","","","","","","","","","","","","",""
"","DSB_instruct","html-button-response","114","857431","0.0-108.0","28","female","","","","","228868","DSB_instruct","0","","","","","","","","","","","","","","","","","","","","","","","","","","","","","","","","","","",""
"","DSB 97103894","html-keyboard-response","115","864760","0.0-109.0","28","female","","","","","","DSB","","","","","","[9,7,1,0,3,8,9,4]","8","49830179","","","","","","","","","","","","","","","","","","","","","","","","","","","",""
"","DSBrecall","html-button-response","116","890764","0.0-110.0","28","female","","","","","893190.3000000119","DSBrecall","49837943","","false","","","","","","8","4","0.5","","","","","","","","","","","","","","","","","","","","","","","","",""
"","","dsb-summary-calculation","117","890766","0.0-111.0","28","female","","","","","null","","null","","","","","","","","","","","","","","","","0","0","0.5","893190.3000000119","","","","","","","","","","","","","","","",""
"","image_instruct","html-button-response","118","893049","0.0-112.0","28","female","","","","","2281","image_instruct","0","","","","","","","","","","","","","","","","","","","","","","","","","","","","","","","","","","",""
"","img10","html-keyboard-response","119","908051","0.0-113.0","28","female","","","","","null","img10","null","","","","","","","","","","","","","","","","","","","","null","null","","","","","","","","","","","","","",""
"","DSB_instruct","html-button-response","120","1366609","0.0-114.0","28","female","","","","","458558","DSB_instruct","0","","","","","","","","","","","","","","","","","","","","","","","","","","","","","","","","","","",""
"","DSB 47567322","html-keyboard-response","121","1373939","0.0-115.0","28","female","","","","","","DSB","","","","","","[4,7,5,6,7,3,2,2]","8","22376574","","","","","","","","","","","","","","","","","","","","","","","","","","","",""
"","DSBrecall","html-button-response","122","1389992","0.0-116.0","28","female","","","","","1392419.200000003","DSBrecall","22376574","","true","","","","","","8","8","1","","","","","","","","","","","","","","","","","","","","","","","","",""
"","","dsb-summary-calculation","123","1389995","0.0-117.0","28","female","","","","","null","","null","","","","","","","","","","","","","","","","","","","","","","1","8","1","1392419.200000003","","","","","","","","","",""
"","consolidated-trial-data","consolidated-trial-data","124","1389995","0.0-118.0","28","female","","","","","null","consolidated-trial-data","null","","","","","","","","","","","","","","","","0","0","0.5","","null","null","1","8","1","","0","2","39","2","1267.159999999404","1","10","","",""
"","","html-button-response","125","1444226","0.0-119.0","28","female","","","","","54229","block message","0","","","","","","","","","","","","","","","","","","","","","","","","","","","","","","","","","","",""
"","VS_instruct","html-button-response","126","1453293","0.0-120.0","28","female","","","","","9066","VS_instruct","0","","","","","","","","","","","","","","","","","","","","","","","","","","","","","","","","","","",""
"","VisSearch","html-button-response","127","1454893","0.0-121.0","28","female","","","","","1598.5","VisSearch","","","true","2","true","","","","","","","","","","","","","","","","","","","","","","","","","","","","","","",""
"","VisSearch","html-button-response","128","1455826","0.0-122.0","28","female","","","","","932.2000000029802","VisSearch","","","true","2","true","","","","","","","","","","","","","","","","","","","","","","","","","","","","","","",""
"","VisSearch","html-button-response","129","1457459","0.0-123.0","28","female","","","","","1632.0999999940395","VisSearch","","","true","2","true","","","","","","","","","","","","","","","","","","","","","","","","","","","","","","",""
"","VisSearch","html-button-response","130","1458593","0.0-124.0","28","female","","","","","1132.6000000089407","VisSearch","","","true","2","true","","","","","","","","","","","","","","","","","","","","","","","","","","","","","","",""
"","VisSearch","html-button-response","131","1460143","0.0-125.0","28","female","","","","","1548.8999999910593","VisSearch","","","true","2","true","","","","","","","","","","","","","","","","","","","","","","","","","","","","","","",""
"","VisSearch","html-button-response","132","1461809","0.0-126.0","28","female","","","","","1665.0999999940395","VisSearch","","","true","2","true","","","","","","","","","","","","","","","","","","","","","","","","","","","","","","",""
"","VisSearch","html-button-response","133","1462776","0.0-127.0","28","female","","","","","965.6000000089407","VisSearch","","","true","2","true","","","","","","","","","","","","","","","","","","","","","","","","","","","","","","",""
"","VisSearch","html-button-response","134","1464310","0.0-128.0","28","female","","","","","1532.9000000059605","VisSearch","","","true","2","true","","","","","","","","","","","","","","","","","","","","","","","","","","","","","","",""
"","VisSearch","html-button-response","135","1465709","0.0-129.0","28","female","","","","","1398.1000000089407","VisSearch","","","true","2","true","","","","","","","","","","","","","","","","","","","","","","","","","","","","","","",""
"","VisSearch","html-button-response","136","1466793","0.0-130.0","28","female","","","","","1082.5999999940395","VisSearch","","","true","2","true","","","","","","","","","","","","","","","","","","","","","","","","","","","","","","",""
"","","html-keyboard-response","137","1466805","0.0-131.0","28","female","","","","","null","","null","","","","","","","","","","","","","vissearch-summary-calculation","1","1348.8600000008942","","","","","","","","","","","","","","","","","","","",""
"","DSB_instruct","html-button-response","138","1480727","0.0-132.0","28","female","","","","","13921","DSB_instruct","0","","","","","","","","","","","","","","","","","","","","","","","","","","","","","","","","","","",""
"","DSB 34149244","html-keyboard-response","139","1488054","0.0-133.0","28","female","","","","","","DSB","","","","","","[3,4,1,4,9,2,4,4]","8","44294143","","","","","","","","","","","","","","","","","","","","","","","","","","","",""
"","DSBrecall","html-button-response","140","1521244","0.0-134.0","28","female","","","","","1523668.400000006","DSBrecall","44294143","","true","","","","","","8","8","1","","","","","","","","","","","","","","","","","","","","","","","","",""
"","","dsb-summary-calculation","141","1521246","0.0-135.0","28","female","","","","","null","","null","","","","","","","","","","","","","","","","1","8","1","1523668.400000006","","","","","","","","","","","","","","","",""
"","image_instruct","html-button-response","142","1523027","0.0-136.0","28","female","","","","","1780","image_instruct","0","","","","","","","","","","","","","","","","","","","","","","","","","","","","","","","","","","",""
"","img2","html-keyboard-response","143","1538030","0.0-137.0","28","female","","","","","null","img2","null","","","","","","","","","","","","","","","","","","","","2","2","","","","","","","","","","","","","",""
"","DSB_instruct","html-button-response","144","1574361","0.0-138.0","28","female","","","","","36329","DSB_instruct","0","","","","","","","","","","","","","","","","","","","","","","","","","","","","","","","","","","",""
"","DSB 66194008","html-keyboard-response","145","1581688","0.0-139.0","28","female","","","","","","DSB","","","","","","[6,6,1,9,4,0,0,8]","8","80049166","","","","","","","","","","","","","","","","","","","","","","","","","","","",""
"","DSBrecall","html-button-response","146","1599360","0.0-140.0","28","female","","","","","1601784.200000003","DSBrecall","88049166","","false","","","","","","8","7","0.875","","","","","","","","","","","","","","","","","","","","","","","","",""
"","","dsb-summary-calculation","147","1599363","0.0-141.0","28","female","","","","","null","","null","","","","","","","","","","","","","","","","","","","","","","0","0","0.875","1601784.200000003","","","","","","","","","",""
"","consolidated-trial-data","consolidated-trial-data","148","1599364","0.0-142.0","28","female","","","","","null","consolidated-trial-data","null","","","","","","","","","","","","","","","","1","8","1","","2","2","0","0","0.875","","0","3","39","2","1348.8600000008942","1","2","","",""
"","","html-button-response","149","1745611","0.0-143.0","28","female","","","","","146245","block message","0","","","","","","","","","","","","","","","","","","","","","","","","","","","","","","","","","","",""
"","VS_instruct","html-button-response","150","1862679","0.0-144.0","28","female","","","","","117064","VS_instruct","0","","","","","","","","","","","","","","","","","","","","","","","","","","","","","","","","","","",""
"","VisSearch","html-button-response","151","1864145","0.0-145.0","28","female","","","","","1465.3999999910593","VisSearch","","","true","2","true","","","","","","","","","","","","","","","","","","","","","","","","","","","","","","",""
"","VisSearch","html-button-response","152","1864962","0.0-146.0","28","female","","","","","815.5","VisSearch","","","true","2","true","","","","","","","","","","","","","","","","","","","","","","","","","","","","","","",""
"","VisSearch","html-button-response","153","1866028","0.0-147.0","28","female","","","","","1065.4000000059605","VisSearch","","","true","2","true","","","","","","","","","","","","","","","","","","","","","","","","","","","","","","",""
"","VisSearch","html-button-response","154","1867361","0.0-148.0","28","female","","","","","1332.4000000059605","VisSearch","","","true","2","true","","","","","","","","","","","","","","","","","","","","","","","","","","","","","","",""
"","VisSearch","html-button-response","155","1869061","0.0-149.0","28","female","","","","","1699","VisSearch","","","true","2","true","","","","","","","","","","","","","","","","","","","","","","","","","","","","","","",""
"","VisSearch","html-button-response","156","1871112","0.0-150.0","28","female","","","","","2048.800000011921","VisSearch","","","true","2","true","","","","","","","","","","","","","","","","","","","","","","","","","","","","","","",""
"","VisSearch","html-button-response","157","1872712","0.0-151.0","28","female","","","","","1599.0999999940395","VisSearch","","","true","2","true","","","","","","","","","","","","","","","","","","","","","","","","","","","","","","",""
"","VisSearch","html-button-response","158","1874745","0.0-152.0","28","female","","","","","2032","VisSearch","","","true","2","true","","","","","","","","","","","","","","","","","","","","","","","","","","","","","","",""
"","VisSearch","html-button-response","159","1876361","0.0-153.0","28","female","","","","","1615.0999999940395","VisSearch","","","true","2","true","","","","","","","","","","","","","","","","","","","","","","","","","","","","","","",""
"","VisSearch","html-button-response","160","1877978","0.0-154.0","28","female","","","","","1616.699999988079","VisSearch","","","true","2","true","","","","","","","","","","","","","","","","","","","","","","","","","","","","","","",""
"","","html-keyboard-response","161","1877990","0.0-155.0","28","female","","","","","null","","null","","","","","","","","","","","","","vissearch-summary-calculation","1","1528.939999999106","","","","","","","","","","","","","","","","","","","",""
"","DSB_instruct","html-button-response","162","1879946","0.0-156.0","28","female","","","","","1954","DSB_instruct","0","","","","","","","","","","","","","","","","","","","","","","","","","","","","","","","","","","",""
"","DSB 60842533","html-keyboard-response","163","1887272","0.0-157.0","28","female","","","","","","DSB","","","","","","[6,0,8,4,2,5,3,3]","8","33524806","","","","","","","","","","","","","","","","","","","","","","","","","","","",""
"","DSBrecall","html-button-response","164","1898095","0.0-158.0","28","female","","","","","1900514.600000009","DSBrecall","33520089","","false","","","","","","8","4","0.5","","","","","","","","","","","","","","","","","","","","","","","","",""
"","","dsb-summary-calculation","165","1898097","0.0-159.0","28","female","","","","","null","","null","","","","","","","","","","","","","","","","0","0","0.5","1900514.600000009","","","","","","","","","","","","","","","",""
"","image_instruct","html-button-response","166","1901146","0.0-160.0","28","female","","","","","3048","image_instruct","0","","","","","","","","","","","","","","","","","","","","","","","","","","","","","","","","","","",""
"","img6","html-keyboard-response","167","1916149","0.0-161.0","28","female","","","","","null","img6","null","","","","","","","","","","","","","","","","","","","","3","2","","","","","","","","","","","","","",""
"","DSB_instruct","html-button-response","168","1917362","0.0-162.0","28","female","","","","","1213","DSB_instruct","0","","","","","","","","","","","","","","","","","","","","","","","","","","","","","","","","","","",""
"","DSB 85190056","html-keyboard-response","169","1924691","0.0-163.0","28","female","","","","","","DSB","","","","","","[8,5,1,9,0,0,5,6]","8","65009158","","","","","","","","","","","","","","","","","","","","","","","","","","","",""
"","DSBrecall","html-button-response","170","1940029","0.0-164.0","28","female","","","","","1942447.800000012","DSBrecall","66105098","","false","","","","","","8","3","0.375","","","","","","","","","","","","","","","","","","","","","","","","",""
"","","dsb-summary-calculation","171","1940031","0.0-165.0","28","female","","","","","null","","null","","","","","","","","","","","","","","","","","","","","","","0","0","0.375","1942447.800000012","","","","","","","","","",""
"","consolidated-trial-data","consolidated-trial-data","172","1940032","0.0-166.0","28","female","","","","","null","consolidated-trial-data","null","","","","","","","","","","","","","","","","0","0","0.5","","3","2","0","0","0.375","","0","4","39","2","1528.939999999106","1","6","","",""
"","","html-button-response","173","1945829","0.0-167.0","28","female","","","","","5796","block message","0","","","","","","","","","","","","","","","","","","","","","","","","","","","","","","","","","","",""
"","VS_instruct","html-button-response","174","1946446","0.0-168.0","28","female","","","","","616","VS_instruct","0","","","","","","","","","","","","","","","","","","","","","","","","","","","","","","","","","","",""
"","VisSearch","html-button-response","175","1947712","0.0-169.0","28","female","","","","","1264.9000000059605","VisSearch","","","true","2","true","","","","","","","","","","","","","","","","","","","","","","","","","","","","","","",""
"","VisSearch","html-button-response","176","1948796","0.0-170.0","28","female","","","","","1083.0999999940395","VisSearch","","","true","2","true","","","","","","","","","","","","","","","","","","","","","","","","","","","","","","",""
"","VisSearch","html-button-response","177","1951298","0.0-171.0","28","female","","","","","null","VisSearch","","","false","2","true","","","","","","","","","","","","","","","","","","","","","","","","","","","","","","",""
"","VisSearch","html-button-response","178","1952162","0.0-172.0","28","female","","","","","862.8999999910593","VisSearch","","","true","2","true","","","","","","","","","","","","","","","","","","","","","","","","","","","","","","",""
"","VisSearch","html-button-response","179","1953779","0.0-173.0","28","female","","","","","1615.5","VisSearch","","","true","2","true","","","","","","","","","","","","","","","","","","","","","","","","","","","","","","",""
"","VisSearch","html-button-response","180","1955662","0.0-174.0","28","female","","","","","1882.3999999910593","VisSearch","","","true","2","true","","","","","","","","","","","","","","","","","","","","","","","","","","","","","","",""
"","VisSearch","html-button-response","181","1957246","0.0-175.0","28","female","","","","","1582.6000000089407","VisSearch","","","true","2","true","","","","","","","","","","","","","","","","","","","","","","","","","","","","","","",""
"","VisSearch","html-button-response","182","1959747","0.0-176.0","28","female","","","","","null","VisSearch","","","false","2","true","","","","","","","","","","","","","","","","","","","","","","","","","","","","","","",""
"","VisSearch","html-button-response","183","1961829","0.0-177.0","28","female","","","","","2080.5999999940395","VisSearch","","","true","2","true","","","","","","","","","","","","","","","","","","","","","","","","","","","","","","",""
"","VisSearch","html-button-response","184","1962862","0.0-178.0","28","female","","","","","1032.4000000059605","VisSearch","","","true","2","true","","","","","","","","","","","","","","","","","","","","","","","","","","","","","","",""
"","","html-keyboard-response","185","1962874","0.0-179.0","28","female","","","","","null","","null","","","","","","","","","","","","","vissearch-summary-calculation","0.8","1425.5499999988824","","","","","","","","","","","","","","","","","","","",""
"","DSB_instruct","html-button-response","186","1964046","0.0-180.0","28","female","","","","","1171","DSB_instruct","0","","","","","","","","","","","","","","","","","","","","","","","","","","","","","","","","","","",""
"","DSB 74889609","html-keyboard-response","187","1971376","0.0-181.0","28","female","","","","","","DSB","","","","","","[7,4,8,8,9,6,0,9]","8","90698847","","","","","","","","","","","","","","","","","","","","","","","","","","","",""
"","DSBrecall","html-button-response","188","1986646","0.0-182.0","28","female","","","","","1989064.300000012","DSBrecall","60698847","","false","","","","","","8","7","0.875","","","","","","","","","","","","","","","","","","","","","","","","",""
"","","dsb-summary-calculation","189","1986648","0.0-183.0","28","female","","","","","null","","null","","","","","","","","","","","","","","","","0","0","0.875","1989064.300000012","","","","","","","","","","","","","","","",""
"","image_instruct","html-button-response","190","1988246","0.0-184.0","28","female","","","","","1597","image_instruct","0","","","","","","","","","","","","","","","","","","","","","","","","","","","","","","","","","","",""
"","img8","html-keyboard-response","191","2003249","0.0-185.0","28","female","","","","","null","img8","null","","","","","","","","","","","","","","","","","","","","2","2","","","","","","","","","","","","","",""
"","DSB_instruct","html-button-response","192","2005847","0.0-186.0","28","female","","","","","2597","DSB_instruct","0","","","","","","","","","","","","","","","","","","","","","","","","","","","","","","","","","","",""
"","DSB 43940280","html-keyboard-response","193","2013176","0.0-187.0","28","female","","","","","","DSB","","","","","","[4,3,9,4,0,2,8,0]","8","08204934","","","","","","","","","","","","","","","","","","","","","","","","","","","",""
"","DSBrecall","html-button-response","194","2033896","0.0-188.0","28","female","","","","","2036313.5","DSBrecall","08098934","","false","","","","","","8","5","0.625","","","","","","","","","","","","","","","","","","","","","","","","",""
"","","dsb-summary-calculation","195","2033898","0.0-189.0","28","female","","","","","null","","null","","","","","","","","","","","","","","","","","","","","","","0","0","0.625","2036313.5","","","","","","","","","",""
"","consolidated-trial-data","consolidated-trial-data","196","2033899","0.0-190.0","28","female","","","","","null","consolidated-trial-data","null","","","","","","","","","","","","","","","","0","0","0.875","","2","2","0","0","0.625","","0","5","39","2","1425.5499999988824","0.8","8","","",""
"","","html-button-response","197","2035113","0.0-191.0","28","female","","","","","1213","block message","0","","","","","","","","","","","","","","","","","","","","","","","","","","","","","","","","","","",""
"","VS_instruct","html-button-response","198","2037197","0.0-192.0","28","female","","","","","2083","VS_instruct","0","","","","","","","","","","","","","","","","","","","","","","","","","","","","","","","","","","",""
"","VisSearch","html-button-response","199","2038546","0.0-193.0","28","female","","","","","1347.6000000089407","VisSearch","","","true","2","true","","","","","","","","","","","","","","","","","","","","","","","","","","","","","","",""
"","VisSearch","html-button-response","200","2040313","0.0-194.0","28","female","","","","","1765.7999999970198","VisSearch","","","true","2","true","","","","","","","","","","","","","","","","","","","","","","","","","","","","","","",""
"","VisSearch","html-button-response","201","2041446","0.0-195.0","28","female","","","","","1131.699999988079","VisSearch","","","true","2","true","","","","","","","","","","","","","","","","","","","","","","","","","","","","","","",""
"","VisSearch","html-button-response","202","2043513","0.0-196.0","28","female","","","","","2066","VisSearch","","","true","2","true","","","","","","","","","","","","","","","","","","","","","","","","","","","","","","",""
"","VisSearch","html-button-response","203","2046015","0.0-197.0","28","female","","","","","null","VisSearch","","","false","2","true","","","","","","","","","","","","","","","","","","","","","","","","","","","","","","",""
"","VisSearch","html-button-response","204","2047179","0.0-198.0","28","female","","","","","1162.5","VisSearch","","","true","2","true","","","","","","","","","","","","","","","","","","","","","","","","","","","","","","",""
"","VisSearch","html-button-response","205","2049681","0.0-199.0","28","female","","","","","null","VisSearch","","","false","2","true","","","","","","","","","","","","","","","","","","","","","","","","","","","","","","",""
"","VisSearch","html-button-response","206","2051296","0.0-200.0","28","female","","","","","1613.9000000059605","VisSearch","","","true","2","true","","","","","","","","","","","","","","","","","","","","","","","","","","","","","","",""
"","VisSearch","html-button-response","207","2053013","0.0-201.0","28","female","","","","","1715.6000000089407","VisSearch","","","true","2","true","","","","","","","","","","","","","","","","","","","","","","","","","","","","","","",""
"","VisSearch","html-button-response","208","2054229","0.0-202.0","28","female","","","","","1215.7000000029802","VisSearch","","","true","2","true","","","","","","","","","","","","","","","","","","","","","","","","","","","","","","",""
"","","html-keyboard-response","209","2054241","0.0-203.0","28","female","","","","","null","","null","","","","","","","","","","","","","vissearch-summary-calculation","0.8","1502.3500000014901","","","","","","","","","","","","","","","","","","","",""
"","DSB_instruct","html-button-response","210","2055396","0.0-204.0","28","female","","","","","1154","DSB_instruct","0","","","","","","","","","","","","","","","","","","","","","","","","","","","","","","","","","","",""
"","DSB 20377931","html-keyboard-response","211","2062724","0.0-205.0","28","female","","","","","","DSB","","","","","","[2,0,3,7,7,9,3,1]","8","13977302","","","","","","","","","","","","","","","","","","","","","","","","","","","",""
"","DSBrecall","html-button-response","212","2077179","0.0-206.0","28","female","","","","","2079596","DSBrecall","13977302","","true","","","","","","8","8","1","","","","","","","","","","","","","","","","","","","","","","","","",""
"","","dsb-summary-calculation","213","2077181","0.0-207.0","28","female","","","","","null","","null","","","","","","","","","","","","","","","","1","8","1","2079596","","","","","","","","","","","","","","","",""
"","image_instruct","html-button-response","214","2078896","0.0-208.0","28","female","","","","","1714","image_instruct","0","","","","","","","","","","","","","","","","","","","","","","","","","","","","","","","","","","",""
"","img3","html-keyboard-response","215","2093900","0.0-209.0","28","female","","","","","null","img3","null","","","","","","","","","","","","","","","","","","","","3","2","","","","","","","","","","","","","",""
"","DSB_instruct","html-button-response","216","2095980","0.0-210.0","28","female","","","","","2079","DSB_instruct","0","","","","","","","","","","","","","","","","","","","","","","","","","","","","","","","","","","",""
"","DSB 91256885","html-keyboard-response","217","2103304","0.0-211.0","28","female","","","","","","DSB","","","","","","[9,1,2,5,6,8,8,5]","8","58865219","","","","","","","","","","","","","","","","","","","","","","","","","","","",""
"","DSBrecall","html-button-response","218","2119363","0.0-212.0","28","female","","","","","2121779.700000003","DSBrecall","58865219","","true","","","","","","8","8","1","","","","","","","","","","","","","","","","","","","","","","","","",""
"","","dsb-summary-calculation","219","2119373","0.0-213.0","28","female","","","","","null","","null","","","","","","","","","","","","","","","","","","","","","","1","8","1","2121779.700000003","","","","","","","","","",""
"","consolidated-trial-data","consolidated-trial-data","220","2119374","0.0-214.0","28","female","","","","","null","consolidated-trial-data","null","","","","","","","","","","","","","","","","1","8","1","","3","2","1","8","1","","0","6","39","2","1502.3500000014901","0.8","3","","",""
"","","html-button-response","221","2120764","0.0-215.0","28","female","","","","","1389","block message","0","","","","","","","","","","","","","","","","","","","","","","","","","","","","","","","","","","",""
"","VS_instruct","html-button-response","222","2122197","0.0-216.0","28","female","","","","","1432","VS_instruct","0","","","","","","","","","","","","","","","","","","","","","","","","","","","","","","","","","","",""
"","VisSearch","html-button-response","223","2124247","0.0-217.0","28","female","","","","","2049","VisSearch","","","true","2","true","","","","","","","","","","","","","","","","","","","","","","","","","","","","","","",""
"","VisSearch","html-button-response","224","2126430","0.0-218.0","28","female","","","","","2181.7000000029802","VisSearch","","","true","2","true","","","","","","","","","","","","","","","","","","","","","","","","","","","","","","",""
"","VisSearch","html-button-response","225","2127713","0.0-219.0","28","female","","","","","1282.2999999970198","VisSearch","","","true","2","true","","","","","","","","","","","","","","","","","","","","","","","","","","","","","","",""
"","VisSearch","html-button-response","226","2129146","0.0-220.0","28","female","","","","","1432.199999988079","VisSearch","","","true","2","true","","","","","","","","","","","","","","","","","","","","","","","","","","","","","","",""
"","VisSearch","html-button-response","227","2130180","0.0-221.0","28","female","","","","","1032.5","VisSearch","","","true","2","true","","","","","","","","","","","","","","","","","","","","","","","","","","","","","","",""
"","VisSearch","html-button-response","228","2131946","0.0-222.0","28","female","","","","","1765.2999999970198","VisSearch","","","true","2","true","","","","","","","","","","","","","","","","","","","","","","","","","","","","","","",""
"","VisSearch","html-button-response","229","2133379","0.0-223.0","28","female","","","","","1431.8999999910593","VisSearch","","","true","2","true","","","","","","","","","","","","","","","","","","","","","","","","","","","","","","",""
"","VisSearch","html-button-response","230","2135029","0.0-224.0","28","female","","","","","1648.5999999940395","VisSearch","","","true","2","true","","","","","","","","","","","","","","","","","","","","","","","","","","","","","","",""
"","VisSearch","html-button-response","231","2137463","0.0-225.0","28","female","","","","","2433.0999999940395","VisSearch","","","true","2","true","","","","","","","","","","","","","","","","","","","","","","","","","","","","","","",""
"","VisSearch","html-button-response","232","2138295","0.0-226.0","28","female","","","","","830.5","VisSearch","","","true","2","true","","","","","","","","","","","","","","","","","","","","","","","","","","","","","","",""
"","","html-keyboard-response","233","2138306","0.0-227.0","28","female","","","","","null","","null","","","","","","","","","","","","","vissearch-summary-calculation","1","1608.7099999964237","","","","","","","","","","","","","","","","","","","",""
"","DSB_instruct","html-button-response","234","2139897","0.0-228.0","28","female","","","","","1590","DSB_instruct","0","","","","","","","","","","","","","","","","","","","","","","","","","","","","","","","","","","",""
"","DSB 38669167","html-keyboard-response","235","2147226","0.0-229.0","28","female","","","","","","DSB","","","","","","[3,8,6,6,9,1,6,7]","8","76196683","","","","","","","","","","","","","","","","","","","","","","","","","","","",""
"","DSBrecall","html-button-response","236","2160847","0.0-230.0","28","female","","","","","2163262.700000003","DSBrecall","76196683","","true","","","","","","8","8","1","","","","","","","","","","","","","","","","","","","","","","","","",""
"","","dsb-summary-calculation","237","2160849","0.0-231.0","28","female","","","","","null","","null","","","","","","","","","","","","","","","","1","8","1","2163262.700000003","","","","","","","","","","","","","","","",""
"","image_instruct","html-button-response","238","2162414","0.0-232.0","28","female","","","","","1563","image_instruct","0","","","","","","","","","","","","","","","","","","","","","","","","","","","","","","","","","","",""
"","img1","html-keyboard-response","239","2177417","0.0-233.0","28","female","","","","","null","img1","null","","","","","","","","","","","","","","","","","","","","1","1","","","","","","","","","","","","","",""
"","DSB_instruct","html-button-response","240","2184647","0.0-234.0","28","female","","","","","7229","DSB_instruct","0","","","","","","","","","","","","","","","","","","","","","","","","","","","","","","","","","","",""
"","DSB 07283405","html-keyboard-response","241","2191972","0.0-235.0","28","female","","","","","","DSB","","","","","","[0,7,2,8,3,4,0,5]","8","50438270","","","","","","","","","","","","","","","","","","","","","","","","","","","",""
"","DSBrecall","html-button-response","242","2209964","0.0-236.0","28","female","","","","","2212378.600000009","DSBrecall","57438270","","false","","","","","","8","7","0.875","","","","","","","","","","","","","","","","","","","","","","","","",""
"","","dsb-summary-calculation","243","2209966","0.0-237.0","28","female","","","","","null","","null","","","","","","","","","","","","","","","","","","","","","","0","0","0.875","2212378.600000009","","","","","","","","","",""
"","consolidated-trial-data","consolidated-trial-data","244","2209966","0.0-238.0","28","female","","","","","null","consolidated-trial-data","null","","","","","","","","","","","","","","","","1","8","1","","1","1","0","0","0.875","","0","7","39","2","1608.7099999964237","1","1","","",""
"","","html-button-response","245","2211248","0.0-239.0","28","female","","","","","1281","block message","0","","","","","","","","","","","","","","","","","","","","","","","","","","","","","","","","","","",""
"","VS_instruct","html-button-response","246","2212130","0.0-240.0","28","female","","","","","881","VS_instruct","0","","","","","","","","","","","","","","","","","","","","","","","","","","","","","","","","","","",""
"","VisSearch","html-button-response","247","2213697","0.0-241.0","28","female","","","","","1565","VisSearch","","","true","2","true","","","","","","","","","","","","","","","","","","","","","","","","","","","","","","",""
"","VisSearch","html-button-response","248","2216199","0.0-242.0","28","female","","","","","null","VisSearch","","","false","2","true","","","","","","","","","","","","","","","","","","","","","","","","","","","","","","",""
"","VisSearch","html-button-response","249","2217997","0.0-243.0","28","female","","","","","1797","VisSearch","","","true","2","true","","","","","","","","","","","","","","","","","","","","","","","","","","","","","","",""
"","VisSearch","html-button-response","250","2220499","0.0-244.0","28","female","","","","","null","VisSearch","","","false","2","true","","","","","","","","","","","","","","","","","","","","","","","","","","","","","","",""
"","VisSearch","html-button-response","251","2222230","0.0-245.0","28","female","","","","","1730.1000000089407","VisSearch","","","true","2","true","","","","","","","","","","","","","","","","","","","","","","","","","","","","","","",""
"","VisSearch","html-button-response","252","2223347","0.0-246.0","28","female","","","","","1115.7000000029802","VisSearch","","","true","2","true","","","","","","","","","","","","","","","","","","","","","","","","","","","","","","",""
"","VisSearch","html-button-response","253","2224880","0.0-247.0","28","female","","","","","1532.2999999970198","VisSearch","","","true","2","true","","","","","","","","","","","","","","","","","","","","","","","","","","","","","","",""
"","VisSearch","html-button-response","254","2226230","0.0-248.0","28","female","","","","","1348.7000000029802","VisSearch","","","true","2","true","","","","","","","","","","","","","","","","","","","","","","","","","","","","","","",""
"","VisSearch","html-button-response","255","2227813","0.0-249.0","28","female","","","","","1582.2000000029802","VisSearch","","","true","2","true","","","","","","","","","","","","","","","","","","","","","","","","","","","","","","",""
"","VisSearch","html-button-response","256","2229664","0.0-250.0","28","female","","","","","1849.1000000089407","VisSearch","","","true","2","true","","","","","","","","","","","","","","","","","","","","","","","","","","","","","","",""
"","","html-keyboard-response","257","2229675","0.0-251.0","28","female","","","","","null","","null","","","","","","","","","","","","","vissearch-summary-calculation","0.8","1565.0125000029802","","","","","","","","","","","","","","","","","","","",""
"","DSB_instruct","html-button-response","258","2231164","0.0-252.0","28","female","","","","","1488","DSB_instruct","0","","","","","","","","","","","","","","","","","","","","","","","","","","","","","","","","","","",""
"","DSB 41805084","html-keyboard-response","259","2238489","0.0-253.0","28","female","","","","","","DSB","","","","","","[4,1,8,0,5,0,8,4]","8","48050814","","","","","","","","","","","","","","","","","","","","","","","","","","","",""
"","DSBrecall","html-button-response","260","2252147","0.0-254.0","28","female","","","","","2254561.400000006","DSBrecall","48050814","","true","","","","","","8","8","1","","","","","","","","","","","","","","","","","","","","","","","","",""
"","","dsb-summary-calculation","261","2252149","0.0-255.0","28","female","","","","","null","","null","","","","","","","","","","","","","","","","1","8","1","2254561.400000006","","","","","","","","","","","","","","","",""
"","image_instruct","html-button-response","262","2253631","0.0-256.0","28","female","","","","","1481","image_instruct","0","","","","","","","","","","","","","","","","","","","","","","","","","","","","","","","","","","",""
"","img9","html-keyboard-response","263","2268634","0.0-257.0","28","female","","","","","null","img9","null","","","","","","","","","","","","","","","","","","","","3","1","","","","","","","","","","","","","",""
"","DSB_instruct","html-button-response","264","2270148","0.0-258.0","28","female","","","","","1512","DSB_instruct","0","","","","","","","","","","","","","","","","","","","","","","","","","","","","","","","","","","",""
"","DSB 52064414","html-keyboard-response","265","2277472","0.0-259.0","28","female","","","","","","DSB","","","","","","[5,2,0,6,4,4,1,4]","8","41446025","","","","","","","","","","","","","","","","","","","","","","","","","","","",""
"","DSBrecall","html-button-response","266","2290248","0.0-260.0","28","female","","","","","2292661.5","DSBrecall","41446025","","true","","","","","","8","8","1","","","","","","","","","","","","","","","","","","","","","","","","",""
"","","dsb-summary-calculation","267","2290250","0.0-261.0","28","female","","","","","null","","null","","","","","","","","","","","","","","","","","","","","","","1","8","1","2292661.5","","","","","","","","","",""
"","consolidated-trial-data","consolidated-trial-data","268","2290251","0.0-262.0","28","female","","","","","null","consolidated-trial-data","null","","","","","","","","","","","","","","","","1","8","1","","3","1","1","8","1","","0","8","39","2","1565.0125000029802","0.8","9","","",""
"","","html-button-response","269","2292314","0.0-263.0","28","female","","","","","2062","block message","0","","","","","","","","","","","","","","","","","","","","","","","","","","","","","","","","","","",""
"","VS_instruct","html-button-response","270","2297965","0.0-264.0","28","female","","","","","5649","VS_instruct","0","","","","","","","","","","","","","","","","","","","","","","","","","","","","","","","","","","",""
"","VisSearch","html-button-response","271","2300281","0.0-265.0","28","female","","","","","2314.7000000029802","VisSearch","","","true","2","true","","","","","","","","","","","","","","","","","","","","","","","","","","","","","","",""
"","VisSearch","html-button-response","272","2301797","0.0-266.0","28","female","","","","","1515.7000000029802","VisSearch","","","true","2","true","","","","","","","","","","","","","","","","","","","","","","","","","","","","","","",""
"","VisSearch","html-button-response","273","2303264","0.0-267.0","28","female","","","","","1465.4000000059605","VisSearch","","","true","2","true","","","","","","","","","","","","","","","","","","","","","","","","","","","","","","",""
"","VisSearch","html-button-response","274","2305130","0.0-268.0","28","female","","","","","1865.2999999970198","VisSearch","","","true","2","true","","","","","","","","","","","","","","","","","","","","","","","","","","","","","","",""
"","VisSearch","html-button-response","275","2306197","0.0-269.0","28","female","","","","","1066.1000000089407","VisSearch","","","true","2","true","","","","","","","","","","","","","","","","","","","","","","","","","","","","","","",""
"","VisSearch","html-button-response","276","2308081","0.0-270.0","28","female","","","","","1882.2999999970198","VisSearch","","","true","2","true","","","","","","","","","","","","","","","","","","","","","","","","","","","","","","",""
"","VisSearch","html-button-response","277","2309048","0.0-271.0","28","female","","","","","965.5999999940395","VisSearch","","","true","2","true","","","","","","","","","","","","","","","","","","","","","","","","","","","","","","",""
"","VisSearch","html-button-response","278","2310864","0.0-272.0","28","female","","","","","1815.2999999970198","VisSearch","","","true","2","true","","","","","","","","","","","","","","","","","","","","","","","","","","","","","","",""
"","VisSearch","html-button-response","279","2313366","0.0-273.0","28","female","","","","","null","VisSearch","","","false","2","true","","","","","","","","","","","","","","","","","","","","","","","","","","","","","","",""
"","VisSearch","html-button-response","280","2315297","0.0-274.0","28","female","","","","","1930","VisSearch","","","true","2","true","","","","","","","","","","","","","","","","","","","","","","","","","","","","","","",""
"","","html-keyboard-response","281","2315309","0.0-275.0","28","female","","","","","null","","null","","","","","","","","","","","","","vissearch-summary-calculation","0.9","1646.7111111117733","","","","","","","","","","","","","","","","","","","",""
"","DSB_instruct","html-button-response","282","2316565","0.0-276.0","28","female","","","","","1254","DSB_instruct","0","","","","","","","","","","","","","","","","","","","","","","","","","","","","","","","","","","",""
"","DSB 12812199","html-keyboard-response","283","2323893","0.0-277.0","28","female","","","","","","DSB","","","","","","[1,2,8,1,2,1,9,9]","8","99121821","","","","","","","","","","","","","","","","","","","","","","","","","","","",""
"","DSBrecall","html-button-response","284","2340415","0.0-278.0","28","female","","","","","2342827.700000003","DSBrecall","99121821","","true","","","","","","8","8","1","","","","","","","","","","","","","","","","","","","","","","","","",""
"","","dsb-summary-calculation","285","2340417","0.0-279.0","28","female","","","","","null","","null","","","","","","","","","","","","","","","","1","8","1","2342827.700000003","","","","","","","","","","","","","","","",""
"","image_instruct","html-button-response","286","2341965","0.0-280.0","28","female","","","","","1547","image_instruct","0","","","","","","","","","","","","","","","","","","","","","","","","","","","","","","","","","","",""
"","img4","html-keyboard-response","287","2356968","0.0-281.0","28","female","","","","","null","img4","null","","","","","","","","","","","","","","","","","","","","1","2","","","","","","","","","","","","","",""
"","DSB_instruct","html-button-response","288","2358431","0.0-282.0","28","female","","","","","1463","DSB_instruct","0","","","","","","","","","","","","","","","","","","","","","","","","","","","","","","","","","","",""
"","DSB 02880814","html-keyboard-response","289","2365756","0.0-283.0","28","female","","","","","","DSB","","","","","","[0,2,8,8,0,8,1,4]","8","41808820","","","","","","","","","","","","","","","","","","","","","","","","","","","",""
"","DSBrecall","html-button-response","290","2378281","0.0-284.0","28","female","","","","","2380693.700000003","DSBrecall","41808820","","true","","","","","","8","8","1","","","","","","","","","","","","","","","","","","","","","","","","",""
"","","dsb-summary-calculation","291","2378283","0.0-285.0","28","female","","","","","null","","null","","","","","","","","","","","","","","","","","","","","","","1","8","1","2380693.700000003","","","","","","","","","",""
"","consolidated-trial-data","consolidated-trial-data","292","2378284","0.0-286.0","28","female","","","","","null","consolidated-trial-data","null","","","","","","","","","","","","","","","","1","8","1","","1","2","1","8","1","","0","9","39","2","1646.7111111117733","0.9","4","","",""
"","","html-button-response","293","2379848","0.0-287.0","28","female","","","","","1563","block message","0","","","","","","","","","","","","","","","","","","","","","","","","","","","","","","","","","","",""
"","VS_instruct","html-button-response","294","2384514","0.0-288.0","28","female","","","","","4665","VS_instruct","0","","","","","","","","","","","","","","","","","","","","","","","","","","","","","","","","","","",""
"","VisSearch","html-button-response","295","2386148","0.0-289.0","28","female","","","","","1632.2000000029802","VisSearch","","","true","1","true","","","","","","","","","","","","","","","","","","","","","","","","","","","","","","",""
"","VisSearch","html-button-response","296","2387198","0.0-290.0","28","female","","","","","1048.9000000059605","VisSearch","","","true","1","true","","","","","","","","","","","","","","","","","","","","","","","","","","","","","","",""
"","VisSearch","html-button-response","297","2388164","0.0-291.0","28","female","","","","","965.4000000059605","VisSearch","","","true","1","true","","","","","","","","","","","","","","","","","","","","","","","","","","","","","","",""
"","VisSearch","html-button-response","298","2389131","0.0-292.0","28","female","","","","","965.7000000029802","VisSearch","","","true","1","true","","","","","","","","","","","","","","","","","","","","","","","","","","","","","","",""
"","VisSearch","html-button-response","299","2390398","0.0-293.0","28","female","","","","","1266.199999988079","VisSearch","","","true","1","true","","","","","","","","","","","","","","","","","","","","","","","","","","","","","","",""
"","VisSearch","html-button-response","300","2391498","0.0-294.0","28","female","","","","","1098.9000000059605","VisSearch","","","true","1","true","","","","","","","","","","","","","","","","","","","","","","","","","","","","","","",""
"","VisSearch","html-button-response","301","2392531","0.0-295.0","28","female","","","","","1032.199999988079","VisSearch","","","true","1","true","","","","","","","","","","","","","","","","","","","","","","","","","","","","","","",""
"","VisSearch","html-button-response","302","2393431","0.0-296.0","28","female","","","","","898.5","VisSearch","","","true","1","true","","","","","","","","","","","","","","","","","","","","","","","","","","","","","","",""
"","VisSearch","html-button-response","303","2394381","0.0-297.0","28","female","","","","","949.0999999940395","VisSearch","","","true","1","true","","","","","","","","","","","","","","","","","","","","","","","","","","","","","","",""
"","VisSearch","html-button-response","304","2395348","0.0-298.0","28","female","","","","","965.5","VisSearch","","","true","1","true","","","","","","","","","","","","","","","","","","","","","","","","","","","","","","",""
"","","html-keyboard-response","305","2395360","0.0-299.0","28","female","","","","","null","","null","","","","","","","","","","","","","vissearch-summary-calculation","1","1082.259999999404","","","","","","","","","","","","","","","","","","","",""
"","DSB_instruct","html-button-response","306","2396482","0.0-300.0","28","female","","","","","1120","DSB_instruct","0","","","","","","","","","","","","","","","","","","","","","","","","","","","","","","","","","","",""
"","DSB 93411768","html-keyboard-response","307","2403805","0.0-301.0","28","female","","","","","","DSB","","","","","","[9,3,4,1,1,7,6,8]","8","86711439","","","","","","","","","","","","","","","","","","","","","","","","","","","",""
"","DSBrecall","html-button-response","308","2414648","0.0-302.0","28","female","","","","","2417060.600000009","DSBrecall","86493849","","false","","","","","","8","3","0.375","","","","","","","","","","","","","","","","","","","","","","","","",""
"","","dsb-summary-calculation","309","2414650","0.0-303.0","28","female","","","","","null","","null","","","","","","","","","","","","","","","","0","0","0.375","2417060.600000009","","","","","","","","","","","","","","","",""
"","image_instruct","html-button-response","310","2416065","0.0-304.0","28","female","","","","","1413","image_instruct","0","","","","","","","","","","","","","","","","","","","","","","","","","","","","","","","","","","",""
"","img6","html-keyboard-response","311","2431068","0.0-305.0","28","female","","","","","null","img6","null","","","","","","","","","","","","","","","","","","","","3","2","","","","","","","","","","","","","",""
"","DSB_instruct","html-button-response","312","2443565","0.0-306.0","28","female","","","","","12496","DSB_instruct","0","","","","","","","","","","","","","","","","","","","","","","","","","","","","","","","","","","",""
"","DSB 59316807","html-keyboard-response","313","2450888","0.0-307.0","28","female","","","","","","DSB","","","","","","[5,9,3,1,6,8,0,7]","8","70861395","","","","","","","","","","","","","","","","","","","","","","","","","","","",""
"","DSBrecall","html-button-response","314","2463980","0.0-308.0","28","female","","","","","2466391.900000006","DSBrecall","70861393","","false","","","","","","8","7","0.875","","","","","","","","","","","","","","","","","","","","","","","","",""
"","","dsb-summary-calculation","315","2463982","0.0-309.0","28","female","","","","","null","","null","","","","","","","","","","","","","","","","","","","","","","0","0","0.875","2466391.900000006","","","","","","","","","",""
"","consolidated-trial-data","consolidated-trial-data","316","2463982","0.0-310.0","28","female","","","","","null","consolidated-trial-data","null","","","","","","","","","","","","","","","","0","0","0.375","","3","2","0","0","0.875","","1","0","39","1","1082.259999999404","1","6","","",""
"","attncheck","html-button-response","317","2466732","0.0-311.0","28","female","","","","","2749","attncheck","1","","","","","","","","","","","false","Next","","","","","","","","","","","","","","","","","","","","","","",""
"","","html-button-response","318","2503965","0.0-312.0","28","female","","","","","37231","block message","0","","","","","","","","","","","","","","","","","","","","","","","","","","","","","","","","","","",""
"","VS_instruct","html-button-response","319","2504749","0.0-313.0","28","female","","","","","783","VS_instruct","0","","","","","","","","","","","","","","","","","","","","","","","","","","","","","","","","","","",""
"","VisSearch","html-button-response","320","2506315","0.0-314.0","28","female","","","","","1564.9000000059605","VisSearch","","","true","1","true","","","","","","","","","","","","","","","","","","","","","","","","","","","","","","",""
"","VisSearch","html-button-response","321","2507232","0.0-315.0","28","female","","","","","915.7000000029802","VisSearch","","","true","1","true","","","","","","","","","","","","","","","","","","","","","","","","","","","","","","",""
"","VisSearch","html-button-response","322","2508099","0.0-316.0","28","female","","","","","865.5999999940395","VisSearch","","","true","1","true","","","","","","","","","","","","","","","","","","","","","","","","","","","","","","",""
"","VisSearch","html-button-response","323","2509848","0.0-317.0","28","female","","","","","1748.3999999910593","VisSearch","","","true","1","true","","","","","","","","","","","","","","","","","","","","","","","","","","","","","","",""
"","VisSearch","html-button-response","324","2511131","0.0-318.0","28","female","","","","","1281.9000000059605","VisSearch","","","true","1","true","","","","","","","","","","","","","","","","","","","","","","","","","","","","","","",""
"","VisSearch","html-button-response","325","2512182","0.0-319.0","28","female","","","","","1049.5","VisSearch","","","true","1","true","","","","","","","","","","","","","","","","","","","","","","","","","","","","","","",""
"","VisSearch","html-button-response","326","2513082","0.0-320.0","28","female","","","","","899.3000000119209","VisSearch","","","true","1","true","","","","","","","","","","","","","","","","","","","","","","","","","","","","","","",""
"","VisSearch","html-button-response","327","2514065","0.0-321.0","28","female","","","","","982","VisSearch","","","true","1","true","","","","","","","","","","","","","","","","","","","","","","","","","","","","","","",""
"","VisSearch","html-button-response","328","2515115","0.0-322.0","28","female","","","","","1048.5","VisSearch","","","true","1","true","","","","","","","","","","","","","","","","","","","","","","","","","","","","","","",""
"","VisSearch","html-button-response","329","2516632","0.0-323.0","28","female","","","","","1515.9000000059605","VisSearch","","","true","1","true","","","","","","","","","","","","","","","","","","","","","","","","","","","","","","",""
"","","html-keyboard-response","330","2516646","0.0-324.0","28","female","","","","","null","","null","","","","","","","","","","","","","vissearch-summary-calculation","1","1187.1700000017881","","","","","","","","","","","","","","","","","","","",""
"","DSB_instruct","html-button-response","331","2520766","0.0-325.0","28","female","","","","","4118","DSB_instruct","0","","","","","","","","","","","","","","","","","","","","","","","","","","","","","","","","","","",""
"","DSB 70570292","html-keyboard-response","332","2528092","0.0-326.0","28","female","","","","","","DSB","","","","","","[7,0,5,7,0,2,9,2]","8","29207507","","","","","","","","","","","","","","","","","","","","","","","","","","","",""
"","DSBrecall","html-button-response","333","2537232","0.0-327.0","28","female","","","","","2539642.700000003","DSBrecall","29270759","","false","","","","","","8","3","0.375","","","","","","","","","","","","","","","","","","","","","","","","",""
"","","dsb-summary-calculation","334","2537234","0.0-328.0","28","female","","","","","null","","null","","","","","","","","","","","","","","","","0","0","0.375","2539642.700000003","","","","","","","","","","","","","","","",""
"","image_instruct","html-button-response","335","2584366","0.0-329.0","28","female","","","","","47130","image_instruct","0","","","","","","","","","","","","","","","","","","","","","","","","","","","","","","","","","","",""
"","img8","html-keyboard-response","336","2599368","0.0-330.0","28","female","","","","","null","img8","null","","","","","","","","","","","","","","","","","","","","2","2","","","","","","","","","","","","","",""
"","DSB_instruct","html-button-response","337","2600516","0.0-331.0","28","female","","","","","1147","DSB_instruct","0","","","","","","","","","","","","","","","","","","","","","","","","","","","","","","","","","","",""
"","DSB 27985059","html-keyboard-response","338","2607845","0.0-332.0","28","female","","","","","","DSB","","","","","","[2,7,9,8,5,0,5,9]","8","95058972","","","","","","","","","","","","","","","","","","","","","","","","","","","",""
"","DSBrecall","html-button-response","339","2618932","0.0-333.0","28","female","","","","","2621341.5","DSBrecall","95980572","","false","","","","","","8","4","0.5","","","","","","","","","","","","","","","","","","","","","","","","",""
"","","dsb-summary-calculation","340","2618934","0.0-334.0","28","female","","","","","null","","null","","","","","","","","","","","","","","","","","","","","","","0","0","0.5","2621341.5","","","","","","","","","",""
"","consolidated-trial-data","consolidated-trial-data","341","2618935","0.0-335.0","28","female","","","","","null","consolidated-trial-data","null","","","","","","","","","","","","","","","","0","0","0.375","","2","2","0","0","0.5","","1","1","39","1","1187.1700000017881","1","8","","",""
"","","html-button-response","342","2623249","0.0-336.0","28","female","","","","","4314","block message","0","","","","","","","","","","","","","","","","","","","","","","","","","","","","","","","","","","",""
"","VS_instruct","html-button-response","343","2623916","0.0-337.0","28","female","","","","","666","VS_instruct","0","","","","","","","","","","","","","","","","","","","","","","","","","","","","","","","","","","",""
"","VisSearch","html-button-response","344","2625882","0.0-338.0","28","female","","","","","1964.9000000059605","VisSearch","","","true","1","true","","","","","","","","","","","","","","","","","","","","","","","","","","","","","","",""
"","VisSearch","html-button-response","345","2626816","0.0-339.0","28","female","","","","","932.5","VisSearch","","","true","1","true","","","","","","","","","","","","","","","","","","","","","","","","","","","","","","",""
"","VisSearch","html-button-response","346","2627549","0.0-340.0","28","female","","","","","731.5","VisSearch","","","true","1","true","","","","","","","","","","","","","","","","","","","","","","","","","","","","","","",""
"","VisSearch","html-button-response","347","2628565","0.0-341.0","28","female","","","","","1015.5999999940395","VisSearch","","","true","1","true","","","","","","","","","","","","","","","","","","","","","","","","","","","","","","",""
"","VisSearch","html-button-response","348","2629982","0.0-342.0","28","female","","","","","1416","VisSearch","","","true","1","true","","","","","","","","","","","","","","","","","","","","","","","","","","","","","","",""
"","VisSearch","html-button-response","349","2630966","0.0-343.0","28","female","","","","","982.7000000029802","VisSearch","","","true","1","true","","","","","","","","","","","","","","","","","","","","","","","","","","","","","","",""
"","VisSearch","html-button-response","350","2631883","0.0-344.0","28","female","","","","","915.2999999970198","VisSearch","","","true","1","true","","","","","","","","","","","","","","","","","","","","","","","","","","","","","","",""
"","VisSearch","html-button-response","351","2633499","0.0-345.0","28","female","","","","","1615","VisSearch","","","true","1","true","","","","","","","","","","","","","","","","","","","","","","","","","","","","","","",""
"","VisSearch","html-button-response","352","2634716","0.0-346.0","28","female","","","","","1215.7999999970198","VisSearch","","","true","1","true","","","","","","","","","","","","","","","","","","","","","","","","","","","","","","",""
"","VisSearch","html-button-response","353","2635482","0.0-347.0","28","female","","","","","765.4000000059605","VisSearch","","","true","1","true","","","","","","","","","","","","","","","","","","","","","","","","","","","","","","",""
"","","html-keyboard-response","354","2635491","0.0-348.0","28","female","","","","","null","","null","","","","","","","","","","","","","vissearch-summary-calculation","1","1155.4700000002981","","","","","","","","","","","","","","","","","","","",""
"","DSB_instruct","html-button-response","355","2636950","0.0-349.0","28","female","","","","","1457","DSB_instruct","0","","","","","","","","","","","","","","","","","","","","","","","","","","","","","","","","","","",""
"","DSB 14247415","html-keyboard-response","356","2644279","0.0-350.0","28","female","","","","","","DSB","","","","","","[1,4,2,4,7,4,1,5]","8","51474241","","","","","","","","","","","","","","","","","","","","","","","","","","","",""
"","DSBrecall","html-button-response","357","2653466","0.0-351.0","28","female","","","","","2655874.900000006","DSBrecall","76984235","","false","","","","","","8","2","0.25","","","","","","","","","","","","","","","","","","","","","","","","",""
"","","dsb-summary-calculation","358","2653468","0.0-352.0","28","female","","","","","null","","null","","","","","","","","","","","","","","","","0","0","0.25","2655874.900000006","","","","","","","","","","","","","","","",""
"","image_instruct","html-button-response","359","2654733","0.0-353.0","28","female","","","","","1263","image_instruct","0","","","","","","","","","","","","","","","","","","","","","","","","","","","","","","","","","","",""
"","img9","html-keyboard-response","360","2669736","0.0-354.0","28","female","","","","","null","img9","null","","","","","","","","","","","","","","","","","","","","3","1","","","","","","","","","","","","","",""
"","DSB_instruct","html-button-response","361","2672033","0.0-355.0","28","female","","","","","2296","DSB_instruct","0","","","","","","","","","","","","","","","","","","","","","","","","","","","","","","","","","","",""
"","DSB 56523498","html-keyboard-response","362","2679361","0.0-356.0","28","female","","","","","","DSB","","","","","","[5,6,5,2,3,4,9,8]","8","89432565","","","","","","","","","","","","","","","","","","","","","","","","","","","",""
"","DSBrecall","html-button-response","363","2689583","0.0-357.0","28","female","","","","","2691990.800000012","DSBrecall","89435256","","false","","","","","","8","4","0.5","","","","","","","","","","","","","","","","","","","","","","","","",""
"","","dsb-summary-calculation","364","2689585","0.0-358.0","28","female","","","","","null","","null","","","","","","","","","","","","","","","","","","","","","","0","0","0.5","2691990.800000012","","","","","","","","","",""
"","consolidated-trial-data","consolidated-trial-data","365","2689585","0.0-359.0","28","female","","","","","null","consolidated-trial-data","null","","","","","","","","","","","","","","","","0","0","0.25","","3","1","0","0","0.5","","1","2","39","1","1155.4700000002981","1","9","","",""
"","","html-button-response","366","2692150","0.0-360.0","28","female","","","","","2564","block message","0","","","","","","","","","","","","","","","","","","","","","","","","","","","","","","","","","","",""
"","VS_instruct","html-button-response","367","2692717","0.0-361.0","28","female","","","","","566","VS_instruct","0","","","","","","","","","","","","","","","","","","","","","","","","","","","","","","","","","","",""
"","VisSearch","html-button-response","368","2693966","0.0-362.0","28","female","","","","","1247.5","VisSearch","","","true","1","true","","","","","","","","","","","","","","","","","","","","","","","","","","","","","","",""
"","VisSearch","html-button-response","369","2695199","0.0-363.0","28","female","","","","","1232.0999999940395","VisSearch","","","true","1","true","","","","","","","","","","","","","","","","","","","","","","","","","","","","","","",""
"","VisSearch","html-button-response","370","2696366","0.0-364.0","28","female","","","","","1165.800000011921","VisSearch","","","true","1","true","","","","","","","","","","","","","","","","","","","","","","","","","","","","","","",""
"","VisSearch","html-button-response","371","2697266","0.0-365.0","28","female","","","","","899","VisSearch","","","true","1","true","","","","","","","","","","","","","","","","","","","","","","","","","","","","","","",""
"","VisSearch","html-button-response","372","2698483","0.0-366.0","28","female","","","","","1215.7000000029802","VisSearch","","","true","1","true","","","","","","","","","","","","","","","","","","","","","","","","","","","","","","",""
"","VisSearch","html-button-response","373","2699466","0.0-367.0","28","female","","","","","982.5","VisSearch","","","true","1","true","","","","","","","","","","","","","","","","","","","","","","","","","","","","","","",""
"","VisSearch","html-button-response","374","2700249","0.0-368.0","28","female","","","","","782","VisSearch","","","true","1","true","","","","","","","","","","","","","","","","","","","","","","","","","","","","","","",""
"","VisSearch","html-button-response","375","2701266","0.0-369.0","28","female","","","","","1016.2000000029802","VisSearch","","","true","1","true","","","","","","","","","","","","","","","","","","","","","","","","","","","","","","",""
"","VisSearch","html-button-response","376","2702599","0.0-370.0","28","female","","","","","1331.2999999970198","VisSearch","","","true","1","true","","","","","","","","","","","","","","","","","","","","","","","","","","","","","","",""
"","VisSearch","html-button-response","377","2703583","0.0-371.0","28","female","","","","","982.6000000089407","VisSearch","","","true","1","true","","","","","","","","","","","","","","","","","","","","","","","","","","","","","","",""
"","","html-keyboard-response","378","2703595","0.0-372.0","28","female","","","","","null","","null","","","","","","","","","","","","","vissearch-summary-calculation","1","1085.470000001788","","","","","","","","","","","","","","","","","","","",""
"","DSB_instruct","html-button-response","379","2704750","0.0-373.0","28","female","","","","","1154","DSB_instruct","0","","","","","","","","","","","","","","","","","","","","","","","","","","","","","","","","","","",""
"","DSB 22675528","html-keyboard-response","380","2712077","0.0-374.0","28","female","","","","","","DSB","","","","","","[2,2,6,7,5,5,2,8]","8","82557622","","","","","","","","","","","","","","","","","","","","","","","","","","","",""
"","DSBrecall","html-button-response","381","2722267","0.0-375.0","28","female","","","","","2724674.200000003","DSBrecall","82557652","","false","","","","","","8","7","0.875","","","","","","","","","","","","","","","","","","","","","","","","",""
"","","dsb-summary-calculation","382","2722269","0.0-376.0","28","female","","","","","null","","null","","","","","","","","","","","","","","","","0","0","0.875","2724674.200000003","","","","","","","","","","","","","","","",""
"","image_instruct","html-button-response","383","2723467","0.0-377.0","28","female","","","","","1197","image_instruct","0","","","","","","","","","","","","","","","","","","","","","","","","","","","","","","","","","","",""
"","img7","html-keyboard-response","384","2738471","0.0-378.0","28","female","","","","","null","img7","null","","","","","","","","","","","","","","","","","","","","1","2","","","","","","","","","","","","","",""
"","DSB_instruct","html-button-response","385","2739817","0.0-379.0","28","female","","","","","1345","DSB_instruct","0","","","","","","","","","","","","","","","","","","","","","","","","","","","","","","","","","","",""
"","DSB 68571536","html-keyboard-response","386","2747146","0.0-380.0","28","female","","","","","","DSB","","","","","","[6,8,5,7,1,5,3,6]","8","63517586","","","","","","","","","","","","","","","","","","","","","","","","","","","",""
"","DSBrecall","html-button-response","387","2754700","0.0-381.0","28","female","","","","","2757107.100000009","DSBrecall","36785943","","false","","","","","","8","0","0","","","","","","","","","","","","","","","","","","","","","","","","",""
"","","dsb-summary-calculation","388","2754702","0.0-382.0","28","female","","","","","null","","null","","","","","","","","","","","","","","","","","","","","","","0","0","0","2757107.100000009","","","","","","","","","",""
"","consolidated-trial-data","consolidated-trial-data","389","2754703","0.0-383.0","28","female","","","","","null","consolidated-trial-data","null","","","","","","","","","","","","","","","","0","0","0.875","","1","2","0","0","0","","1","3","39","1","1085.470000001788","1","7","","",""
"","","html-button-response","390","2763401","0.0-384.0","28","female","","","","","8697","block message","0","","","","","","","","","","","","","","","","","","","","","","","","","","","","","","","","","","",""
"","VS_instruct","html-button-response","391","2764267","0.0-385.0","28","female","","","","","865","VS_instruct","0","","","","","","","","","","","","","","","","","","","","","","","","","","","","","","","","","","",""
"","VisSearch","html-button-response","392","2766216","0.0-386.0","28","female","","","","","1947.6000000089407","VisSearch","","","true","1","true","","","","","","","","","","","","","","","","","","","","","","","","","","","","","","",""
"","VisSearch","html-button-response","393","2768166","0.0-387.0","28","female","","","","","1949","VisSearch","","","true","1","true","","","","","","","","","","","","","","","","","","","","","","","","","","","","","","",""
"","VisSearch","html-button-response","394","2769316","0.0-388.0","28","female","","","","","1148.8999999910593","VisSearch","","","true","1","true","","","","","","","","","","","","","","","","","","","","","","","","","","","","","","",""
"","VisSearch","html-button-response","395","2770433","0.0-389.0","28","female","","","","","1115.6000000089407","VisSearch","","","true","1","true","","","","","","","","","","","","","","","","","","","","","","","","","","","","","","",""
"","VisSearch","html-button-response","396","2771483","0.0-390.0","28","female","","","","","1048.9000000059605","VisSearch","","","true","1","true","","","","","","","","","","","","","","","","","","","","","","","","","","","","","","",""
"","VisSearch","html-button-response","397","2772800","0.0-391.0","28","female","","","","","1315.7999999970198","VisSearch","","","true","1","true","","","","","","","","","","","","","","","","","","","","","","","","","","","","","","",""
"","VisSearch","html-button-response","398","2773883","0.0-392.0","28","female","","","","","1082.0999999940395","VisSearch","","","true","1","true","","","","","","","","","","","","","","","","","","","","","","","","","","","","","","",""
"","VisSearch","html-button-response","399","2774600","0.0-393.0","28","female","","","","","715.6000000089407","VisSearch","","","true","1","true","","","","","","","","","","","","","","","","","","","","","","","","","","","","","","",""
"","VisSearch","html-button-response","400","2775750","0.0-394.0","28","female","","","","","1149.2000000029802","VisSearch","","","true","1","true","","","","","","","","","","","","","","","","","","","","","","","","","","","","","","",""
"","VisSearch","html-button-response","401","2777033","0.0-395.0","28","female","","","","","1282.2000000029802","VisSearch","","","true","1","true","","","","","","","","","","","","","","","","","","","","","","","","","","","","","","",""
"","","html-keyboard-response","402","2777045","0.0-396.0","28","female","","","","","null","","null","","","","","","","","","","","","","vissearch-summary-calculation","1","1275.4900000020862","","","","","","","","","","","","","","","","","","","",""
"","DSB_instruct","html-button-response","403","2778184","0.0-397.0","28","female","","","","","1138","DSB_instruct","0","","","","","","","","","","","","","","","","","","","","","","","","","","","","","","","","","","",""
"","DSB 46911568","html-keyboard-response","404","2785510","0.0-398.0","28","female","","","","","","DSB","","","","","","[4,6,9,1,1,5,6,8]","8","86511964","","","","","","","","","","","","","","","","","","","","","","","","","","","",""
"","DSBrecall","html-button-response","405","2799400","0.0-399.0","28","female","","","","","2801806.800000012","DSBrecall","56511674","","false","","","","","","8","5","0.625","","","","","","","","","","","","","","","","","","","","","","","","",""
"","","dsb-summary-calculation","406","2799402","0.0-400.0","28","female","","","","","null","","null","","","","","","","","","","","","","","","","0","0","0.625","2801806.800000012","","","","","","","","","","","","","","","",""
"","image_instruct","html-button-response","407","2800884","0.0-401.0","28","female","","","","","1481","image_instruct","0","","","","","","","","","","","","","","","","","","","","","","","","","","","","","","","","","","",""
"","img2","html-keyboard-response","408","2816282","0.0-402.0","28","female","","","","","null","img2","null","","","","","","","","","","","","","","","","","","","","2","2","","","","","","","","","","","","","",""
"","DSB_instruct","html-button-response","409","2838767","0.0-403.0","28","female","","","","","22483","DSB_instruct","0","","","","","","","","","","","","","","","","","","","","","","","","","","","","","","","","","","",""
"","DSB 01723140","html-keyboard-response","410","2846095","0.0-404.0","28","female","","","","","","DSB","","","","","","[0,1,7,2,3,1,4,0]","8","04132710","","","","","","","","","","","","","","","","","","","","","","","","","","","",""
"","DSBrecall","html-button-response","411","2861034","0.0-405.0","28","female","","","","","2863439.800000012","DSBrecall","04132074","","false","","","","","","8","5","0.625","","","","","","","","","","","","","","","","","","","","","","","","",""
"","","dsb-summary-calculation","412","2861036","0.0-406.0","28","female","","","","","null","","null","","","","","","","","","","","","","","","","","","","","","","0","0","0.625","2863439.800000012","","","","","","","","","",""
"","consolidated-trial-data","consolidated-trial-data","413","2861037","0.0-407.0","28","female","","","","","null","consolidated-trial-data","null","","","","","","","","","","","","","","","","0","0","0.625","","2","2","0","0","0.625","","1","4","39","1","1275.4900000020862","1","2","","",""
